"Time (s)","Acceleration x (m/s^2)","Acceleration y (m/s^2)","Acceleration z (m/s^2)","Absolute acceleration (m/s^2)"
-1.777041667E-3,6.930587769E-2,-3.248245239E-2,9.733509064E0,9.733810000E0
8.283958333E-3,8.532257080E-2,-4.011657715E-2,9.792336731E0,9.792790610E0
1.834495833E-2,7.020401001E-2,-3.996688843E-2,9.804760895E0,9.805093684E0
2.840595833E-2,7.155120850E-2,-2.020797729E-2,9.796228638E0,9.796510780E0
3.846595833E-2,7.544311523E-2,-3.278182983E-2,9.775272217E0,9.775618304E0
4.852695833E-2,9.056167603E-2,-3.353027344E-2,9.773026886E0,9.773503988E0
5.858795833E-2,1.317260742E-1,-7.559280396E-2,9.923164673E0,9.924326836E0
6.864895833E-2,1.139131165E-1,-7.334747314E-2,9.802964630E0,9.803900835E0
7.870995833E-2,1.064286804E-1,-6.960525513E-2,9.790690155E0,9.791516005E0
8.876995833E-2,9.430389404E-2,-6.122268677E-2,9.792935486E0,9.793580901E0
9.883095833E-2,1.008901978E-1,-6.316864014E-2,9.784852295E0,9.785576301E0
1.088919583E-1,9.924362183E-2,-3.323089600E-2,9.807604980E0,9.808163388E0
1.189529583E-1,7.080276489E-2,-2.559677124E-2,9.799521790E0,9.799810995E0
1.290139583E-1,9.071136475E-2,-2.888992310E-2,9.798923035E0,9.799385482E0
1.390739583E-1,1.215472412E-1,-2.544708252E-2,9.802066498E0,9.802853101E0
1.491349583E-1,1.330732727E-1,-4.370910645E-2,9.789792023E0,9.790793984E0
1.591959583E-1,1.333726501E-1,-4.281097412E-2,9.790091400E0,9.791093436E0
1.692569583E-1,1.169068909E-1,-3.592529297E-2,9.787397003E0,9.788161112E0
1.793179583E-1,7.978408813E-2,-3.173400879E-2,9.796078949E0,9.796455243E0
1.893779583E-1,9.879455566E-2,-3.592529297E-2,9.799372101E0,9.799935947E0
1.994389583E-1,1.058299255E-1,-4.266128540E-2,9.802814941E0,9.803479012E0
2.094999583E-1,1.010398865E-1,-5.074447632E-2,9.795180817E0,9.795833364E0
2.195609583E-1,1.047821045E-1,-6.062393188E-2,9.789342957E0,9.790091423E0
2.296219583E-1,9.220825195E-2,-6.047424316E-2,9.808652802E0,9.809272617E0
2.396819583E-1,1.264869690E-1,-8.891510010E-2,9.908644867E0,9.909851056E0
2.497429583E-1,1.016386414E-1,-6.691085815E-2,9.861043854E0,9.861794632E0
2.598039583E-1,7.200027466E-2,-3.727249146E-2,9.720935211E0,9.721273304E0
2.698649583E-1,3.906875610E-2,-3.667373657E-2,9.678722992E0,9.678871323E0
2.799259583E-1,6.601272583E-2,-5.822891235E-2,9.824968872E0,9.825363180E0
2.899859583E-1,5.358856201E-2,-4.760101318E-2,9.833650818E0,9.833912039E0
3.000469583E-1,5.523513794E-2,-4.430786133E-2,9.755962372E0,9.756219345E0
3.101079583E-1,5.718109131E-2,-3.263214111E-2,9.773176575E0,9.773398329E0
3.201689583E-1,7.050338745E-2,-2.170486450E-2,9.842332764E0,9.842609210E0
3.302299583E-1,6.391708374E-2,-2.664459229E-2,9.792336731E0,9.792581579E0
3.402899583E-1,6.167175293E-2,-2.140548706E-2,9.758507080E0,9.758725431E0
3.503509583E-1,6.556365967E-2,-2.409988403E-2,9.773775330E0,9.774024943E0
3.604119583E-1,5.254074097E-2,-2.005828857E-2,9.814790039E0,9.814951165E0
3.704729583E-1,5.224136353E-2,-4.176315308E-2,9.811047821E0,9.811275792E0
3.805339583E-1,6.256988525E-2,-5.074447632E-2,9.783355408E0,9.783687087E0
3.905939583E-1,6.182144165E-2,-5.104385376E-2,9.797276459E0,9.797604471E0
4.006549583E-1,5.553451538E-2,-7.604187012E-2,9.825417938E0,9.825869127E0
4.107159583E-1,4.296066284E-2,-7.664062500E-2,9.794731750E0,9.795125802E0
4.207769583E-1,3.802093506E-2,-7.694000244E-2,9.763297119E0,9.763674308E0
4.308379583E-1,5.763015747E-2,-6.316864014E-2,9.797426147E0,9.797799275E0
4.408979583E-1,9.205856323E-2,-4.954696655E-2,9.801467743E0,9.802025280E0
4.509589583E-1,8.068222046E-2,-4.685256958E-2,9.781259766E0,9.781704728E0
4.610199583E-1,7.604187012E-2,-4.730163574E-2,9.787397003E0,9.787806696E0
4.710809583E-1,7.110214233E-2,-2.679428101E-2,9.788893890E0,9.789188784E0
4.811419583E-1,5.807922363E-2,-1.077758789E-2,9.788893890E0,9.789072119E0
4.912029583E-1,5.179229736E-2,-2.125579834E-2,9.794132996E0,9.794293001E0
5.012629583E-1,6.406677246E-2,-1.092727661E-2,9.786798248E0,9.787014045E0
5.113239583E-1,8.607101440E-2,-2.634521484E-2,9.799072723E0,9.799486136E0
5.213849583E-1,8.711883545E-2,-2.888992310E-2,9.801467743E0,9.801897481E0
5.314459583E-1,8.143066406E-2,-3.996688843E-2,9.767189026E0,9.767610239E0
5.415069583E-1,8.232879639E-2,-4.281097412E-2,9.766290894E0,9.766731727E0
5.515669583E-1,7.634124756E-2,-4.296066284E-2,9.790690155E0,9.791082030E0
5.616279583E-1,-9.969268799E-2,5.478607178E-2,9.684860229E0,9.685528267E0
5.716889583E-1,-4.938230896E-1,6.885681152E-1,9.199120331E0,9.238062684E0
5.817499583E-1,5.813909912E-1,-8.545729065E-1,1.045321243E1,1.050418776E1
5.918099583E-1,3.670367432E-1,-1.546284485E-1,9.867630157E0,9.875664578E0
6.018709583E-1,-2.514770508E-2,8.981323242E-4,9.755213928E0,9.755246383E0
6.119319583E-1,7.903564453E-2,-7.858657837E-2,9.807455292E0,9.808088590E0
6.219929583E-1,5.942642212E-2,-4.415817261E-2,9.787995758E0,9.788275763E0
6.320539583E-1,6.765930176E-2,-4.640350342E-2,9.808503113E0,9.808846231E0
6.421149583E-1,6.032455444E-2,-3.412902832E-2,9.788893890E0,9.789139259E0
6.521749583E-1,3.861968994E-2,-4.056564331E-2,9.778265991E0,9.778426399E0
6.622359583E-1,6.152206421E-2,-4.790039063E-2,9.762249298E0,9.762560667E0
6.722969583E-1,7.664062500E-2,-6.601272583E-2,9.779463501E0,9.779986597E0
6.823579583E-1,6.646179199E-2,-5.972579956E-2,9.808652802E0,9.809059798E0
6.924189583E-1,7.694000244E-2,-4.864883423E-2,9.799222412E0,9.799645216E0
7.024789583E-1,7.214996338E-2,-6.197113037E-2,9.787995758E0,9.788457846E0
7.125399583E-1,6.242019653E-2,-4.011657715E-2,9.818981323E0,9.819261675E0
7.226009583E-1,7.574249268E-2,-4.894821167E-2,9.800270233E0,9.800685154E0
7.326619583E-1,5.523513794E-2,-3.996688843E-2,9.785151672E0,9.785389186E0
7.427229583E-1,8.217910767E-2,-4.580474854E-2,9.783205719E0,9.783658090E0
7.527829583E-1,8.083190918E-2,-4.834945679E-2,9.800270233E0,9.800722836E0
7.628439583E-1,5.972579956E-2,-4.071533203E-2,9.822573853E0,9.822839813E0
7.729047500E-1,4.939727783E-2,-4.700225830E-2,9.822723541E0,9.822960199E0
7.829657500E-1,5.777984619E-2,-4.625381470E-2,9.802216187E0,9.802495605E0
7.930267500E-1,-1.627116394E-1,-6.107299805E-1,9.777367859E0,9.797774667E0
8.030867500E-1,-1.924996948E-1,-7.840695190E-1,9.763746185E0,9.797068986E0
8.131477500E-1,6.277944946E-1,-5.568420410E-2,9.821376343E0,9.841578122E0
8.232087500E-1,3.566633148E0,2.502795410E-1,1.001402573E1,1.063316618E1
8.332697500E-1,2.848276978E0,-1.990859985E-2,9.906998291E0,1.030833125E1
8.433307500E-1,2.029629364E0,-3.659889221E-1,9.755064240E0,9.970688119E0
8.533907500E-1,2.230511627E0,-4.218228149E-1,9.860445099E0,1.011837409E1
8.634517500E-1,3.436703339E0,-2.860551453E-1,9.908345490E0,1.049133298E1
8.735127500E-1,4.167633362E0,-1.956431580E-1,9.844428406E0,1.069206316E1
8.835737500E-1,4.609963531E0,-6.765930176E-2,9.867031403E0,1.089103532E1
8.936347500E-1,5.697751465E0,2.998265076E-1,9.818831635E0,1.135621955E1
9.036947500E-1,4.944368134E0,-3.727249146E-2,9.608069916E0,1.080570095E1
9.137557500E-1,4.145928497E0,-1.606159973E-1,9.624535675E0,1.048075415E1
9.238167500E-1,4.184847565E0,-4.016148376E-1,9.640402679E0,1.051720531E1
9.338777500E-1,4.968617706E0,-5.366340637E-1,9.802814941E0,1.100319585E1
9.439387500E-1,5.538782043E0,-3.116519165E-1,9.922715607E0,1.136818009E1
9.539987500E-1,5.896089020E0,-2.929408264E-1,9.993218994E0,1.160664060E1
9.640597500E-1,5.407205658E0,1.496887207E-2,9.686057739E0,1.109314255E1
9.741207500E-1,5.100493469E0,-8.337661743E-2,9.800419922E0,1.104853909E1
9.841817500E-1,4.527185669E0,-3.619473267E-1,9.813592529E0,1.081355697E1
9.942427500E-1,4.473746796E0,-1.092727661E-1,9.742640076E0,1.072125863E1
1.004302750E0,4.746928711E0,-3.752696228E-1,9.895921326E0,1.098195877E1
1.014363750E0,5.036426697E0,-3.947291565E-1,9.889634399E0,1.110523631E1
1.024424750E0,5.657634888E0,5.673202515E-2,9.937085724E0,1.143493436E1
1.034485750E0,5.567671967E0,-9.205856323E-2,9.953551483E0,1.140528970E1
1.044546750E0,2.363884277E0,-3.930825806E-1,9.632618866E0,9.926218263E0
1.054606750E0,2.812651062E0,-1.930984497E-1,9.507928162E0,9.917105976E0
1.064667750E0,5.456303558E0,5.837860107E-2,9.857900391E0,1.126733583E1
1.074728750E0,4.308640137E0,-5.507048035E-1,1.016326538E1,1.105258426E1
1.084789750E0,6.631509705E0,2.802172852E-1,9.991572418E0,1.199528916E1
1.094850750E0,6.075416107E0,-2.725831604E-1,1.020832169E1,1.188254241E1
1.104910750E0,5.064418488E0,3.620970154E-1,9.753267975E0,1.099571212E1
1.114971750E0,2.756966858E0,-1.326242065E-1,9.539213104E0,9.930510666E0
1.125032750E0,3.666774902E0,6.195616150E-1,9.596693573E0,1.029201741E1
1.135093750E0,4.623585205E0,8.449928284E-1,9.996661835E0,1.104648364E1
1.145154750E0,3.178340607E0,1.076261902E-1,9.793833618E0,1.029721367E1
1.155214750E0,2.328108673E0,-2.559677124E-2,9.669591980E0,9.945941597E0
1.165275750E0,8.918453979E-1,-3.635939026E-1,9.664801941E0,9.712671378E0
1.175336750E0,7.424560547E-1,-8.189469910E-1,9.941875763E0,1.000313995E1
1.185397750E0,7.385641479E-1,4.881349182E-1,9.674232330E0,9.714655109E0
1.195458750E0,1.286724243E0,1.204245758E0,9.939780121E0,1.009480540E1
1.205518750E0,2.204615479E0,-6.565347290E-1,9.988878021E0,1.025031957E1
1.215579750E0,1.028660889E0,-2.027833099E0,1.040396484E1,1.064954153E1
1.225640750E0,-2.071691895E-1,-1.106199646E-1,9.518256683E0,9.521153614E0
1.235701750E0,-2.444716187E0,5.996530151E-1,9.049132233E0,9.392710745E0
1.245762750E0,-2.059866486E0,-2.856060791E-1,1.038959473E1,1.059567361E1
1.255823750E0,-1.510808258E0,4.778063965E-1,9.645941162E0,9.775224880E0
1.265883750E0,-1.695075073E0,-1.062340851E0,9.974807281E0,1.017342754E1
1.275944750E0,-2.383942566E0,2.835104370E-1,9.750274200E0,1.004148432E1
1.286005750E0,-2.266287231E0,-8.451425171E-1,9.976753235E0,1.026576489E1
1.296066750E0,-2.528242493E0,-6.942562866E-1,9.822124786E0,1.016602859E1
1.306127750E0,-3.020419006E0,-1.667232971E0,9.920470276E0,1.050325317E1
1.316187750E0,-2.574346619E0,-8.870553589E-1,1.003513184E1,1.039798051E1
1.326248750E0,-3.041076050E0,9.684860229E-2,9.536518707E0,1.001013048E1
1.336309750E0,-2.340682526E0,-1.255888367E-1,9.882000275E0,1.015620484E1
1.346370750E0,-2.787203979E0,4.584965515E-1,9.921518097E0,1.031577658E1
1.356431750E0,-2.894530792E0,2.330653381E-1,1.002869522E1,1.044065878E1
1.366491750E0,-3.535497894E0,1.628613281E-1,9.906249847E0,1.051950832E1
1.376552750E0,-4.821922760E0,-2.362088013E-1,9.754016418E0,1.088336207E1
1.386613750E0,-5.184768219E0,-2.350112915E-2,9.983489227E0,1.124955248E1
1.396674750E0,-4.543801117E0,1.796264648E-3,9.828411713E0,1.082791802E1
1.406735750E0,-5.343288574E0,-1.055305481E-1,1.023796005E1,1.154892616E1
1.416795750E0,-4.101620636E0,5.575904846E-1,9.921218719E0,1.075010604E1
1.426856750E0,-1.872007141E0,4.194277954E-1,1.005474106E1,1.023611978E1
1.436917750E0,-2.196232910E0,-4.810995483E-1,9.874515839E0,1.012723846E1
1.446978750E0,-3.466641083E0,-4.607418823E-1,9.347312164E0,9.980086582E0
1.457039750E0,-4.311484222E0,-7.490423584E-1,9.449699249E0,1.041377821E1
1.467099750E0,-4.244423676E0,-2.272274780E-1,9.701625366E0,1.059189782E1
1.477160750E0,-4.045786743E0,5.480104065E-1,9.800270233E0,1.061668510E1
1.487221750E0,-3.960164795E0,7.078779602E-1,1.023751099E1,1.099957397E1
1.497282750E0,-5.478607178E0,1.001417542E-1,9.483977966E0,1.095312755E1
1.507343750E0,-2.203268280E0,1.218466187E-1,9.564660187E0,9.815903535E0
1.517403750E0,-2.329904938E0,-7.241940308E-1,9.949060822E0,1.024386281E1
1.527464750E0,-2.472707977E0,-1.061293030E-1,9.580527191E0,9.895051765E0
1.537525750E0,-2.314337311E0,1.384620667E-1,9.849817200E0,1.011900330E1
1.547586750E0,-4.904550934E0,-4.474195862E-1,1.001178040E1,1.115753337E1
1.557647750E0,-3.767814789E0,8.921447754E-2,9.678872681E0,1.038676869E1
1.567707750E0,-3.783232727E0,-7.206015015E-1,9.829160156E0,1.055672799E1
1.577768750E0,-3.636687469E0,-7.324269104E-1,9.776170349E0,1.045635939E1
1.587829750E0,-3.246149597E0,-5.980064392E-1,9.856104126E0,1.039412755E1
1.597890750E0,-2.477348328E0,3.567082214E-1,9.698930969E0,1.001667397E1
1.607951750E0,-3.877237244E0,-4.064048767E-1,9.763746185E0,1.051327129E1
1.618011750E0,-3.047362976E0,9.924362183E-2,9.729766846E0,1.019630488E1
1.628072750E0,-2.188748474E0,1.469943237E-1,9.743388519E0,9.987284268E0
1.638133750E0,-2.934797058E0,-4.460723877E-1,9.758656769E0,1.020016648E1
1.648194750E0,-3.004552002E0,-1.902543640E-1,9.752968597E0,1.020705275E1
1.658255750E0,-2.805915070E0,-2.841091919E-1,9.818232880E0,1.021526183E1
1.668315750E0,-2.803819427E0,-3.626957703E-1,9.838740234E0,1.023688239E1
1.678376750E0,-1.644929352E0,-3.179388428E-1,9.815987549E0,9.957935993E0
1.688437750E0,4.845423889E-1,7.424560547E-2,9.801318054E0,9.813568634E0
1.698498750E0,1.977388000E-1,-5.523513794E-2,9.794582062E0,9.796733605E0
1.708559750E0,2.436932373E-1,-8.113128662E-2,9.809700623E0,9.813062467E0
1.718619750E0,2.354603577E-1,-5.807922363E-2,9.787397003E0,9.790401160E0
1.728680750E0,1.936972046E-1,3.592529297E-3,9.792785797E0,9.794701893E0
1.738741750E0,1.829196167E-1,6.676116943E-2,9.784253540E0,9.786190984E0
1.748802750E0,1.416055298E-1,1.317260742E-1,9.789193268E0,9.791103550E0
1.758863750E0,1.386117554E-1,1.478924561E-1,9.797126770E0,9.799223354E0
1.768925333E0,1.833686829E-1,1.297801208E-1,9.790690155E0,9.793267109E0
1.778985333E0,2.143542480E-1,9.639953613E-2,9.791737976E0,9.794558347E0
1.789046333E0,2.493814087E-1,5.912704468E-2,9.801617432E0,9.804967688E0
1.799107333E0,2.701881409E-1,4.595443726E-2,9.801318054E0,9.805149109E0
1.809168333E0,2.588117981E-1,4.415817261E-2,9.804611206E0,9.808125937E0
1.819229333E0,2.339634705E-1,7.394622803E-2,9.790690155E0,9.793764376E0
1.829289333E0,2.092648315E-1,7.439529419E-2,9.798773346E0,9.801289992E0
1.839350333E0,1.863624573E-1,1.083746338E-1,9.807006226E0,9.809375471E0
1.849411333E0,1.752854919E-1,8.966354370E-2,9.791139221E0,9.793118594E0
1.859472333E0,1.817221069E-1,7.020401001E-2,9.798473969E0,9.800410381E0
1.869533333E0,1.779798889E-1,6.242019653E-2,9.793384552E0,9.795200565E0
1.879593333E0,1.646575928E-1,4.206253052E-2,9.809401245E0,9.810873262E0
1.889654333E0,1.850152588E-1,2.604583740E-2,9.807305603E0,9.809085188E0
1.899715333E0,1.799258423E-1,3.128494263E-2,9.799821167E0,9.801522686E0
1.909776333E0,1.713935852E-1,3.113525391E-2,9.796528015E0,9.798076664E0
1.919837333E0,1.751358032E-1,3.053649902E-2,9.801916809E0,9.803528863E0
1.929897333E0,1.731898499E-1,3.742218018E-2,9.795480194E0,9.797082595E0
1.939958333E0,1.929487610E-1,5.209167480E-2,9.801467743E0,9.803505122E0
1.950019333E0,2.043251038E-1,4.685256958E-2,9.792037354E0,9.794280956E0
1.960080333E0,1.999841309E-1,4.939727783E-2,9.797276459E0,9.799441808E0
1.970141333E0,2.040257263E-1,8.951385498E-2,9.787546692E0,9.790082200E0
1.980201333E0,2.005828857E-1,8.652008057E-2,9.808503113E0,9.810935355E0
1.990262333E0,1.827699280E-1,9.325607300E-2,9.803413696E0,9.805560751E0
2.000323333E0,2.013313293E-1,5.388793945E-2,9.803114319E0,9.805329600E0
2.010384333E0,2.308200073E-1,1.122665405E-2,9.797575836E0,9.800300821E0
2.020445333E0,2.408491516E-1,-1.706451416E-2,9.787247314E0,9.790225202E0
2.030505333E0,2.444416809E-1,-4.864883423E-2,9.799372101E0,9.802541100E0
2.040566333E0,2.294728088E-1,-2.859054565E-2,9.800719299E0,9.803447045E0
2.050627333E0,2.040257263E-1,5.119354248E-2,9.787097626E0,9.789357855E0
2.060688333E0,1.856140137E-1,9.505233765E-2,9.793085175E0,9.795305240E0
2.070749333E0,1.335223389E-1,1.558259583E-1,9.792187042E0,9.794336987E0
2.080809333E0,1.273851013E-1,1.815724182E-1,9.793833618E0,9.796344851E0
2.090870333E0,1.544787598E-1,1.416055298E-1,9.796078949E0,9.798320192E0
2.100931333E0,1.872605896E-1,7.259902954E-2,9.795180817E0,9.797239631E0
2.110992333E0,2.185455322E-1,4.340972900E-3,9.801168365E0,9.803605578E0
2.121053333E0,2.387535095E-1,-4.565505981E-2,9.803114319E0,9.806127573E0
2.131113333E0,2.508782959E-1,-6.182144165E-2,9.801617432E0,9.805022493E0
2.141174333E0,2.127076721E-1,-2.335144043E-2,9.799970856E0,9.802306801E0
2.151235333E0,1.573228455E-1,5.628295898E-2,9.790540466E0,9.791966139E0
2.161296333E0,1.356179810E-1,1.152603149E-1,9.792037354E0,9.793654717E0
2.171357333E0,1.508862305E-1,1.347198486E-1,9.800270233E0,9.802357509E0
2.181417333E0,1.782792664E-1,9.160949707E-2,9.809700623E0,9.811748167E0
2.191478333E0,2.014810181E-1,8.442443848E-2,9.785301361E0,9.787739515E0
2.201539333E0,2.317181396E-1,4.266128540E-2,9.799521790E0,9.802353829E0
2.211600333E0,2.466870117E-1,1.945953369E-3,9.785301361E0,9.788410545E0
2.221661333E0,2.297721863E-1,1.242416382E-2,9.795629883E0,9.798332226E0
2.231721333E0,2.279759216E-1,1.930984497E-2,9.808802490E0,9.811470439E0
2.241782333E0,2.026785278E-1,4.849914551E-2,9.794132996E0,9.796349927E0
2.251843333E0,1.782792664E-1,7.244934082E-2,9.804760895E0,9.806649204E0
2.261904333E0,1.736389160E-1,6.481521606E-2,9.795480194E0,9.797233473E0
2.271965333E0,1.695973206E-1,5.358856201E-2,9.788295135E0,9.789910962E0
2.282026333E0,1.698966980E-1,4.894821167E-2,9.783804474E0,9.785401923E0
2.292086333E0,1.930984497E-1,4.999603271E-2,9.800868988E0,9.802898527E0
2.302147333E0,1.839674377E-1,4.790039063E-2,9.799372101E0,9.801215845E0
2.312208333E0,1.951940918E-1,6.301895142E-2,9.807305603E0,9.809450306E0
2.322269333E0,2.154020691E-1,5.703140259E-2,9.796228638E0,9.798762481E0
2.332330333E0,1.992356873E-1,6.376739502E-2,9.792935486E0,9.795169553E0
2.342390333E0,1.872605896E-1,4.026626587E-2,9.786798248E0,9.788672425E0
2.352451333E0,1.969903564E-1,3.367996216E-2,9.794132996E0,9.796171736E0
2.362512333E0,1.859133911E-1,2.844085693E-2,9.805509338E0,9.807312887E0
2.372573333E0,1.833686829E-1,2.978805542E-2,9.771829376E0,9.773595079E0
2.382634333E0,1.930984497E-1,3.742218018E-2,9.786049805E0,9.788026267E0
2.392694333E0,1.868115234E-1,7.439529419E-2,9.793983307E0,9.796047275E0
2.402755333E0,1.857637024E-1,7.978408813E-2,9.794432373E0,9.796518727E0
2.412816333E0,2.158511353E-1,6.301895142E-2,9.798024902E0,9.800604833E0
2.422877333E0,2.192939758E-1,5.987548828E-2,9.803713074E0,9.806348197E0
2.432938333E0,2.227368164E-1,3.966751099E-2,9.793234863E0,9.795847809E0
2.442998333E0,2.064207458E-1,4.400848389E-2,9.802515564E0,9.804787486E0
2.453059333E0,2.044747925E-1,6.810836792E-2,9.800868988E0,9.803238323E0
2.463120333E0,1.839674377E-1,6.436614990E-2,9.805958405E0,9.807895149E0
2.473181333E0,1.815724182E-1,7.888595581E-2,9.789642334E0,9.791643813E0
2.483242333E0,1.706451416E-1,8.502319336E-2,9.796528015E0,9.798383023E0
2.493302333E0,1.713935852E-1,6.047424316E-2,9.797276459E0,9.798962134E0
2.503363333E0,1.794767761E-1,4.730163574E-2,9.799072723E0,9.800830352E0
2.513424333E0,2.106120300E-1,2.724334717E-2,9.801168365E0,9.803468823E0
2.523485333E0,2.323168945E-1,7.783813477E-3,9.797575836E0,9.800332851E0
2.533546333E0,2.222877502E-1,1.481918335E-2,9.809550934E0,9.812080359E0
2.543606333E0,2.044747925E-1,2.978805542E-2,9.812544708E0,9.814720114E0
2.553667333E0,1.817221069E-1,4.415817261E-2,9.801318054E0,9.803101982E0
2.563728333E0,1.701960754E-1,6.750961304E-2,9.798024902E0,9.799735519E0
2.573789333E0,1.499880981E-1,7.020401001E-2,9.798773346E0,9.800172658E0
2.583850333E0,1.606159973E-1,6.825805664E-2,9.800270233E0,9.801823978E0
2.593910333E0,1.865121460E-1,4.909790039E-2,9.798174591E0,9.800072587E0
2.603971333E0,2.134561157E-1,4.236190796E-2,9.801767120E0,9.804182614E0
2.614032333E0,2.049238586E-1,1.930984497E-2,9.805209961E0,9.807370139E0
2.624093333E0,2.357597351E-1,2.739303589E-2,9.796078949E0,9.798953812E0
2.634154333E0,2.188449097E-1,4.266128540E-2,9.785151672E0,9.787691573E0
2.644215333E0,2.100132751E-1,8.128097534E-2,9.795629883E0,9.798218051E0
2.654275333E0,1.814227295E-1,1.073268127E-1,9.805209961E0,9.807475497E0
2.664336333E0,1.514849854E-1,1.086740112E-1,9.797126770E0,9.798900484E0
2.674397333E0,1.781295776E-1,8.202941895E-2,9.804910583E0,9.806871597E0
2.684458333E0,1.917512512E-1,6.990463257E-2,9.793085175E0,9.795211710E0
2.694519333E0,2.088157654E-1,5.014572144E-2,9.801767120E0,9.804119405E0
2.704579333E0,2.200424194E-1,1.496887207E-2,9.806407471E0,9.808887308E0
2.714640333E0,2.148033142E-1,-7.334747314E-3,9.796677704E0,9.799035070E0
2.724701333E0,2.183958435E-1,-2.095642090E-3,9.797276459E0,9.799710564E0
2.734762333E0,2.176473999E-1,1.706451416E-2,9.802665253E0,9.805096004E0
2.744823333E0,2.038760376E-1,4.326004028E-2,9.798473969E0,9.800690230E0
2.754883333E0,1.811233521E-1,5.044509888E-2,9.791438599E0,9.793243600E0
2.764944333E0,1.733395386E-1,6.137237549E-2,9.797426147E0,9.799151610E0
2.775004958E0,1.815724182E-1,7.963439941E-2,9.799072723E0,9.801078329E0
2.785065958E0,1.742376709E-1,6.706054688E-2,9.794731750E0,9.796510907E0
2.795126958E0,1.737886047E-1,3.682342529E-2,9.804760895E0,9.806370106E0
2.805186958E0,1.919009399E-1,2.454895020E-2,9.783654785E0,9.785567412E0
2.815247958E0,1.878593445E-1,2.155517578E-2,9.794282684E0,9.796107853E0
2.825308958E0,1.992356873E-1,1.751358032E-2,9.800868988E0,9.802909492E0
2.835369958E0,2.160008240E-1,2.454895020E-2,9.820328522E0,9.822734410E0
2.845430958E0,2.288740540E-1,4.670288086E-2,9.799521790E0,9.802305433E0
2.855490958E0,2.037263489E-1,7.589218140E-2,9.799821167E0,9.802232345E0
2.865551958E0,2.001338196E-1,1.046324158E-1,9.790241089E0,9.792845453E0
2.875612958E0,1.911524963E-1,1.219963074E-1,9.794282684E0,9.796907455E0
2.885673958E0,1.844165039E-1,1.106199646E-1,9.794432373E0,9.796792931E0
2.895734958E0,1.938468933E-1,6.870712280E-2,9.795180817E0,9.797339665E0
2.905794958E0,2.148033142E-1,5.194198608E-2,9.798623657E0,9.801115447E0
2.915855958E0,2.073188782E-1,1.212478638E-2,9.784552917E0,9.786756558E0
2.925916958E0,2.246827698E-1,-1.407073975E-2,9.806557159E0,9.809140821E0
2.935977958E0,2.097138977E-1,-1.287322998E-2,9.806108093E0,9.808358761E0
2.946038958E0,1.989363098E-1,3.308120728E-2,9.805958405E0,9.808031926E0
2.956098958E0,1.733395386E-1,8.696914673E-2,9.786798248E0,9.788719537E0
2.966159958E0,1.607656860E-1,1.079255676E-1,9.790839844E0,9.792754382E0
2.976220958E0,1.595681763E-1,9.550140381E-2,9.796228638E0,9.797993572E0
2.986281958E0,1.594184875E-1,7.484436035E-2,9.807305603E0,9.808886742E0
2.996342958E0,1.956431580E-1,3.891906738E-2,9.789642334E0,9.791674421E0
3.006402958E0,2.194436646E-1,2.140548706E-2,9.804311829E0,9.806790716E0
3.016463958E0,2.052232361E-1,2.694396973E-3,9.808802490E0,9.810949502E0
3.026524958E0,2.116598511E-1,1.347198486E-2,9.797875214E0,9.800170411E0
3.036585958E0,1.984872437E-1,2.484832764E-2,9.790989532E0,9.793032761E0
3.046646958E0,1.874102783E-1,7.065307617E-2,9.796827393E0,9.798874498E0
3.056706958E0,1.842668152E-1,9.370513916E-2,9.791139221E0,9.793321304E0
3.066767958E0,1.710942078E-1,9.205856323E-2,9.787546692E0,9.789474871E0
3.076828958E0,2.017803955E-1,9.610015869E-2,9.798773346E0,9.801321832E0
3.086889958E0,2.085163879E-1,8.322692871E-2,9.794731750E0,9.797304521E0
3.096950958E0,2.332150269E-1,6.316864014E-2,9.788594513E0,9.791576077E0
3.107011958E0,2.185455322E-1,5.164260864E-2,9.791588287E0,9.794163073E0
3.117071958E0,2.302212524E-1,5.104385376E-2,9.802515564E0,9.805351533E0
3.127132958E0,2.085163879E-1,3.248245239E-2,9.786798248E0,9.789073202E0
3.137193958E0,2.050735474E-1,4.415817261E-2,9.800419922E0,9.802664727E0
3.147254958E0,2.094145203E-1,5.972579956E-2,9.797875214E0,9.800294910E0
3.157315958E0,1.974394226E-1,4.251159668E-2,9.805509338E0,9.807589049E0
3.167375958E0,1.824705505E-1,4.490661621E-2,9.809401245E0,9.811200991E0
3.177436958E0,1.773811340E-1,5.748046875E-2,9.788893890E0,9.790669623E0
3.187497958E0,1.947450256E-1,4.281097412E-2,9.783505096E0,9.785536796E0