Time (s),Acceleration x (m/s^2),Acceleration y (m/s^2),Acceleration z (m/s^2),Absolute acceleration (m/s^2)
0.0023398333,0.2236349487,-0.0392184448,-0.0396675110,9.7729702560
0.0123998333,0.2222877502,-0.0281414795,-0.0107775880,9.8017836980
0.0224608333,0.2348616028,-0.0315843201,-0.0185614010,9.7943058650
0.0325218333,0.2281256104,-0.0312849426,-0.0101788330,9.8025259470
0.0425828333,0.2644999695,-0.0260458374,-0.0429606630,9.7706548420
0.0526428333,0.2800675964,-0.0357756043,-0.0172142030,9.7968551800
0.0627038333,0.2833607483,-0.0119750977,-0.0154179380,9.7986873860
0.0727648333,0.2869532776,-0.0236508179,0.0052391050,9.8194613010
0.0828258333,0.2540217590,-0.0013471985,-0.0091310120,9.8041604330
0.0928858333,0.2398013306,0.0079335022,-0.0479003910,9.7650476910
0.1029468333,0.2414479065,-0.0043409729,-0.0188607790,9.7941167640
0.1130078333,0.2787203979,-0.0240998840,-0.0140707400,9.7999232620
0.1230688333,0.2688409424,-0.0402662659,0.0005987550,9.8143642050
0.1331288333,0.2700384521,-0.0493972778,-0.0089813230,9.8048624650
0.1431898333,0.2686912537,-0.0523910523,-0.0178129580,9.7960128050
0.1532508333,0.2616558838,-0.0499960327,-0.0044906620,9.8091272190
0.1633118333,0.2562670898,-0.0282911682,-0.0263452150,9.7870513520
0.1733718333,0.2574645996,-0.0194595337,-0.0166154480,9.7967876200
0.1834328333,0.2381547546,-0.0058378601,-0.0238005070,9.7890986460
0.1934938333,0.2356100464,-0.0246986389,-0.0134719850,9.7993919850
0.2035538333,0.2664459229,-0.0525407410,-0.0255967710,9.7881714590
0.2136148333,0.2900967407,-0.0305364990,-0.0104782100,9.8038622950
0.2236758333,0.3279679871,-0.0486488342,-0.0016465760,9.8139557060
0.2337368333,0.3288661194,-0.0452059936,0.0017962650,9.8174101700
0.2437968333,0.3149450684,-0.0422122192,-0.0088316350,9.8063180450
0.2538578333,0.2550695801,-0.0306861877,-0.0492475890,9.7641328220
0.2639188333,0.2342628479,-0.0148191834,-0.0146694950,9.7981425990
0.2739798333,0.2592608643,0.0022453308,-0.0038919070,9.8095350130
0.2840398333,0.2835104370,-0.0206570435,0.0224533080,9.8365615400
0.2941008333,0.3534150696,-0.0287402344,0.0392184450,9.8555990270
0.3041618333,0.3661386108,-0.0332308960,-0.0154179380,9.8014794570
0.3142228333,0.3667373657,-0.0428109741,0.0100291440,9.8269680710
0.3242828333,0.3216810608,-0.0516426086,-0.0014968870,9.8139125210
0.3343438333,0.2933898926,-0.0495469666,0.0055384830,9.8200472620
0.3444048333,0.2633024597,-0.0238005066,0.0050894170,9.8186493420
0.3544658333,0.2510279846,-0.0206570435,-0.0360749820,9.7771699400
0.3645258333,0.2516267395,0.0115260315,-0.0504450990,9.7628049620
0.3745868333,0.8107141113,0.5959107971,-0.0064366150,9.8550607350
0.3846478333,1.9812799070,1.8517991640,-0.0974473570,10.0840621300
0.3947088333,1.3316308590,0.5294490051,-0.0246986390,9.8896754100
0.4047688333,0.9776170349,0.0416134644,-0.0077838130,9.8509344180
0.4148298333,0.8190966797,0.3270698547,-0.0884660340,9.7614607880
0.4248908333,0.7406597900,0.5914201355,0.0784368900,9.9337575380
0.4349518333,0.8699908447,0.7882608032,-0.0059875490,9.8740518180
0.4450118333,1.4395564270,1.3576766970,0.0742456050,10.0803730000
0.4550728333,1.4885046390,1.1835887150,0.1284329220,10.1187438600
0.4651338333,0.8719367981,1.2295431520,-0.4721182250,9.4587571160
0.4751938333,0.7274871826,1.0831475830,0.3255729700,10.2192116000
0.4852548333,2.3349943540,1.2168196110,-0.6644682310,9.5170163360
0.4953158333,1.1029064940,0.8759783936,-0.0739462280,9.8374022960
0.5053768333,0.8813671875,1.3668077090,0.4580474900,10.3960459100
0.5154368333,1.5042219540,1.5022760010,-0.1417552190,9.8992158290
0.5254978333,2.2591021730,1.3313314820,0.0766406250,10.2284724700
0.5355552500,1.9127224730,1.2117301940,-0.1287323000,9.9425218940
0.5456162500,1.1261082460,1.1395802310,-0.2625540160,9.6809342370
0.5556762500,1.2861254880,1.4937437440,-0.0305364990,9.9761363020
0.5657372500,1.6417858890,1.4081217960,-0.0435594180,10.0030810000
0.5757982500,1.6326548770,1.4801220700,-0.0775387570,9.9788338560
0.5858592500,1.7106427000,1.3674064640,0.2348616000,10.2808240700
0.5959192500,1.7530046080,1.4199472050,-0.0799337770,9.9881661940
0.6059802500,1.7661772160,1.8938616940,0.0492475890,10.1936675000
0.6160412500,1.7025595090,1.8702108760,-0.1784289550,9.9580900980
0.6261022500,1.7908758540,1.6666342160,-0.1106199650,10.0031434600
0.6361622500,1.9625688170,2.0790266420,-0.0032931520,10.2149658500
0.6462232500,2.2758673100,2.4993525700,0.0317340090,10.4060589800
0.6562842500,2.7039770510,2.4635769650,0.0502954100,10.5169448500
0.6663452500,3.0079948430,2.4643254090,-0.1416055300,10.4210740500
0.6764052500,2.5119264220,2.0999830630,-0.1513352970,10.1985051400
0.6864662500,2.0874092100,2.0477416990,0.0621208190,10.2960814300
0.6965272500,3.1314880370,3.1530432130,-0.1145118710,10.6653827300
0.7065882500,3.5714231870,2.5554858400,-0.1013392640,10.6556869700
0.7166482500,3.3947904970,2.4117846680,0.0975970460,10.7471757700
0.7267092500,3.1430140690,2.7146049500,0.0672102360,10.7147981600
0.7367702500,2.7827133180,2.0868104550,-0.2221380620,10.1992827100
0.7468312500,2.4459136960,2.4740551760,0.2856060800,10.6782351000
0.7568912500,2.2909858700,2.5976980590,-0.3312611390,10.0917363200
0.7669522500,2.1131556700,1.9080821230,-0.0116757200,10.2035955900
0.7770132500,2.9183312990,2.3216720580,0.1558259580,10.6407004300
0.7870732500,2.9063562010,1.5593074040,0.1657054140,10.5068094300
0.7971342500,2.8214826970,1.6326548770,-0.2222877500,10.1267246800
0.8071952500,3.0319450380,1.4394067380,0.0862207030,10.4498692200
0.8172562500,2.8330087280,1.1295510860,-0.0179626460,10.2560138300
0.8273162500,2.2116508480,1.1265573120,-0.0196092220,10.1001129900
0.8373772500,2.0068766780,1.1002120970,0.1368154910,10.2067212700
0.8474382500,2.3543041990,0.8662486267,-0.1254391480,10.0041918100
0.8574992500,1.7799485780,0.4974156189,-0.0550854490,9.9284438420
0.8675592500,1.0000703430,0.9295669556,-0.0172142030,9.8875117740
0.8776202500,0.2644999695,0.8562194824,0.2737806700,10.1235223400
0.8876812500,-0.0372724915,0.7011419678,-0.0212557980,9.8138933330
0.8977422500,-0.2320175171,-0.0278421021,-0.0308358760,9.7819557490
0.9078022500,0.8283773804,0.3201841736,0.0208067320,9.8708402880
0.9178632500,0.9313632202,-0.0188607788,0.3376977500,10.1903661800
0.9279242500,0.6737489319,-0.2377056885,-0.4540058900,9.3832333130
0.9379852500,0.1142124939,0.0214054871,0.1483415220,9.9590194580
0.9480452500,-0.6002517700,0.1743873596,-0.0401165770,9.7898587950
0.9581062500,-0.9475296021,-0.2716850281,-0.2392025760,9.6214234100
0.9681672500,-0.5056484985,-0.1803749084,0.0664617920,9.8910420600
0.9782282500,0.2441423035,0.0255967712,0.3005749500,10.1135545900
0.9882882500,0.6483018494,-0.0238005066,-0.0089813230,9.8224655180
0.9983492500,0.2538720703,-0.3266207886,0.3897894300,10.2081749900
1.0084102500,-0.1660047913,-0.0459544373,-0.2975811770,9.5139782040
1.0184712500,-0.7768844604,0.1405577087,-0.0184117130,9.8233653660
1.0285312500,-1.0370434570,0.4610412598,0.1047821040,9.9795251570
1.0385922500,-0.3094065857,0.5031037903,0.1185534670,9.9461057610
1.0486532500,0.4381388855,0.5176235962,0.0332308960,9.8665644650
1.0587142500,0.1185534668,0.3761677551,0.1535806270,9.9713838570
1.0687742500,-0.4093986511,-0.1972897339,-0.0678089900,9.7527850460
1.0788352500,-1.4766792300,-1.0153385930,0.0916094970,10.0624730900
1.0888962500,-2.2296134950,-1.4060261540,-0.0496966550,10.1099756300
1.0989572500,-2.8306137080,-1.5022760010,-0.1778302000,10.1512512600
1.1090172500,-3.3500335690,-1.0419831850,0.2071691900,10.6137708900
1.1190782500,-2.7400520320,-0.8201445007,-0.0559835820,10.1647114300
1.1291392500,-2.2528152470,-1.1856843570,0.0838256840,10.2161054500
1.1391992500,-1.8010546880,-1.2247531130,-0.1237925720,9.9280628780
1.1492602500,-1.7329463200,-1.2822335820,0.2930905200,10.3305209900
1.1593212500,-1.6458274840,-1.2596305850,-0.3441343690,9.6900995590
1.1693822500,-2.4225622560,-1.8779946900,0.3486250300,10.6110006300
1.1794422500,-3.0231134030,-2.0239411930,-0.0342787170,10.4307372300
1.1895032500,-2.5231530760,-2.0341200260,0.0333805850,10.3632083400
1.1995642500,-1.6052618410,-2.1092637630,0.0880169680,10.2467848200
1.2096252500,-1.1320957950,-1.6025674440,-0.1317260740,9.8751632640
1.2196852500,-1.0159373470,-1.1235635380,0.1354682920,10.0601621900
1.2297462500,-0.8268804932,-0.6966513062,-0.0238005070,9.8457480630
1.2398072500,-0.7173083496,-0.7384144592,0.0646655270,9.9281824350
1.2498682500,-1.1305989070,-1.6645385740,0.0375718690,10.0510504100
1.2599282500,-1.5441888430,-2.2662872310,0.0384700010,10.2231569700
1.2699892500,-1.7124389650,-1.6045133970,0.0306861880,10.1166207300
1.2800502500,-1.8279986570,-0.7264393616,-0.0004490660,10.0048279700
1.2901112500,-1.3352233890,-0.8690927124,0.1588197330,10.0953212200
1.3001712500,-0.8457412720,-1.2445120240,-0.1847158810,9.7421857320
1.3102322500,-0.3254232788,-1.2801379390,-0.0800834660,9.8191613300
1.3202932500,0.0089813232,-1.6530125430,-0.0157173160,9.9327994260
1.3303542500,-0.3879931641,-2.0234921260,0.0127235410,10.0364813000
1.3404142500,-0.9292675781,-1.9719992070,0.0230520630,10.0718038100
1.3504752500,-1.0843450930,-1.5316149900,0.0004490660,9.9883211620
1.3605362500,-1.1975097660,-1.0734178160,0.0175135800,9.9582266800
1.3705972500,-0.8084687805,-1.2211605830,0.0474513240,9.9656510850
1.3806572500,-0.6119274902,-1.3705499270,-0.0746946720,9.8503315780
1.3907182500,-0.5315446472,-1.5073654170,0.0420625310,9.9808730240
1.4007792500,-0.6918612671,-1.5732284550,0.0375718690,9.9964189340
1.4108402500,-0.8955876160,-1.6172369380,0.0462538150,10.0281240400
1.4209002500,-0.5547463989,-1.4006373600,0.0720002750,9.9961721680
1.4309612500,-0.0218545532,-1.4319223020,0.0712518310,9.9844888130
1.4410222500,-0.0227526855,-1.5377522280,-0.1269360350,9.8044340660
1.4510832500,-0.1808239746,-1.6838484190,0.0067359920,9.9617442430
1.4611432500,-0.1775308228,-1.6497193910,0.1228944400,10.0705254700
1.4712042500,-0.6451583862,-1.2584330750,-0.0323327640,9.8794058390
1.4812652500,-1.2485536190,-0.7812254333,0.0660127260,9.9852304270
1.4913252500,-1.3121713260,-0.9148974609,-0.0637673950,9.8766330770
1.5013862500,-0.7970924377,-1.2011022950,-0.0143701170,9.9011296260
1.5114472500,-0.5953120422,-0.6914122009,-0.0169148250,9.8354951320
1.5215082500,-0.4096980286,-0.5421725464,-0.0315843200,9.8020006510
1.5315687080,-0.2752775574,-0.7918533325,0.0778381350,9.9233135800
1.5416297080,-0.5069956970,-1.1725117490,0.0046403500,9.8974235860
1.5516907080,-0.5462141418,-1.1960128780,-0.0847238160,9.8137553240
1.5617517080,-0.1270857239,-0.9716294861,0.0826281740,9.9410415360
1.5718117080,-0.0179626465,-0.9848020935,-0.0261955260,9.8332592670
1.5818727080,-0.1333726501,-0.3212319946,0.0160166930,9.8321707830
1.5919337080,-0.4668791199,-0.1026864624,-0.1390608220,9.6827467810
1.6019947080,-0.5725593567,-0.3926335144,0.2309697000,10.0649420100
1.6120547080,-0.4379891968,-0.7557783508,-0.1541793820,9.6952517890
1.6221157080,-0.6417155457,-1.1045530700,0.0294886780,9.9220649950
1.6321767080,-0.4695735168,-0.7969427490,-0.0652642820,9.7885387700
1.6422377080,-0.0874182129,-0.6033952332,0.0184117130,9.8473044300
1.6522977080,0.0940045166,-0.4104464722,-0.0061372380,9.8129011110
1.6623587080,0.2989283752,-0.1380130005,0.0655636600,9.8810507210
1.6724197080,0.3233276367,0.1767823792,-0.0029937740,9.8139270370
1.6824807080,0.3008743286,0.1501377869,-0.0127235410,9.8030450740
1.6925407080,0.2990780640,0.1781295776,-0.0245489500,9.7916408270
1.7026017080,0.3011737061,0.2279759216,-0.0101788330,9.8070981200
1.7126627080,0.3131488037,0.2579136658,-0.0155676270,9.8028305680
1.7227237080,0.2972817993,0.2601589966,-0.0293389890,9.7886357060
1.7327837080,0.3061134338,0.2478845215,-0.0208067320,9.7971147290
1.7428447080,0.2975811768,0.2086660767,-0.0447569270,9.7720043160
1.7529057080,0.2766247559,0.1829196167,-0.0401165770,9.7755103670
1.7629667080,0.2888992310,0.1748364258,-0.0300874330,9.7857406650
1.7730267080,0.2056723022,0.1369651794,0.0302371220,9.8433392280
1.7830877080,-0.4460723877,-0.1769320679,0.1270857240,9.9486661530
1.7931487080,-0.7524851990,-0.3742218018,-0.1848655700,9.6617539160
1.8032087080,-1.1451187130,-0.8655001831,-0.0208067320,9.8938714500
1.8132697080,-1.0109976200,-1.0687774660,-0.0190104680,9.9009028620
1.8233307080,-0.6923103333,-1.1308982850,0.0827778630,9.9812463330
1.8333917080,-0.3070115662,-1.3424084470,-0.0255967710,9.8808331170
1.8434517080,-0.2874023438,-1.6105009460,0.0326321410,9.9776610920
1.8535127080,-1.0774594120,-2.1474343870,-0.0435594180,10.0576217300
1.8635737080,-1.8148260500,-2.6370661930,0.0504450990,10.3670675300
1.8736347080,-2.3885829160,-2.8988717650,-0.0267942810,10.4794990300
1.8836947080,-2.2056633000,-2.6822721860,0.0493972780,10.4530976000
1.8937557080,-1.4506333920,-2.5063879390,0.0074844360,10.2356884700
1.9038167080,-0.8171507263,-2.3379881290,0.1451980590,10.2586496300
1.9138777080,-0.8414002991,-2.2906864930,-0.0420625310,10.0681578000
1.9239377080,-1.6566050720,-2.3131398010,-0.0886157230,10.1291790600
1.9339987080,-2.1784199520,-2.3736140440,0.0125738530,10.3374326700
1.9440597080,-2.2601499940,-1.9199075320,0.2501298500,10.4881140100
1.9541207080,-2.5548870850,-1.7619859310,-0.0450563050,10.2462758000
1.9641807080,-2.6869125370,-2.4423211670,0.0758921810,10.5316331100
1.9742417080,-2.6539810180,-2.6605673220,-0.0032931520,10.5020823100
1.9843027080,-2.4086412050,-2.3810984800,-0.0004490660,10.3777874300
1.9943637080,-2.1148022460,-1.8856288150,0.1116677860,10.3183078200
2.0044237080,-2.7159521480,-2.1338127140,-0.0008981320,10.3994246100
2.0144847080,-3.1850765990,-2.5978477480,-0.1128652950,10.5322337300
2.0245457080,-1.9742445370,-1.7628840640,0.0818797300,10.2398577300
2.0346067080,-1.8488053890,-2.4625291440,0.1387614440,10.4144123900
2.0446667080,-1.8241067500,-3.2310310360,0.0312849430,10.5175004800
2.0547277080,-1.3895603940,-3.1615754700,0.0739462280,10.4699011700
2.0647887080,-0.8767268372,-2.8159442140,0.2624043300,10.4953094600
2.0748497080,-0.9409432983,-2.5797354130,-0.0619711300,10.1274121000
2.0849097080,-1.3465997310,-2.1140538020,0.1679507450,10.2879568100
2.0949707080,-2.1064196780,-2.0197499080,-0.0320333860,10.2041670200
2.1050317080,-2.4628285220,-2.7527755740,0.0711021420,10.5489088200
2.1150917080,-2.1218376160,-3.1660661320,-0.0857716370,10.4444620200
2.1251527080,-1.1240126040,-3.0150302120,0.2600093100,10.5716081500
2.1352137080,-0.4257147217,-2.9526100160,0.0986448670,10.3479651200
2.1452747080,-0.3472778320,-2.8273205570,0.0697549440,10.2822128500
2.1553347080,-0.4379891968,-2.2543121340,0.1877096560,10.2580678500
2.1653957080,-0.8571176147,-1.6028668210,0.0651145940,10.0410019900
2.1754567080,-1.2337344360,-1.6013699340,0.1091230770,10.1230177800
2.1855177080,-1.1452684020,-1.4760804750,0.2549198900,10.2368484300
2.1955777080,-0.6845265198,-1.7284556580,-0.2788700870,9.7107452310
2.2056387080,0.0824784851,-1.8676661680,0.2369572400,10.2194094500
2.2156997080,0.3550616455,-2.1118084720,-0.1278341670,9.9161554550
2.2257607080,0.8026309204,-1.2933105470,0.1908531200,10.1160235100
2.2358207080,0.4328997803,-1.0560539250,0.0273930360,9.9033809300
2.2458817080,-0.0618214417,-1.0669812010,-0.0303868100,9.8378404600
2.2559427080,0.0835263061,-0.3900888062,0.0923579410,9.9103904420
2.2660037080,0.2570155334,-0.1293310547,0.1574725340,9.9716243520
2.2760637080,0.4240681458,-0.3703298950,-0.2171983340,9.6093091240
2.2861247080,1.1153306580,-0.4537065125,0.0333805850,9.9167511520
2.2961857080,1.7344432070,-0.0260458374,0.2094145200,10.1684629600
2.3062467080,1.6217276000,0.1362167358,-0.0137713620,9.9304909710
2.3163067080,1.3058843990,0.3977229309,-0.1077758790,9.7977890610
2.3263677080,0.6671626282,0.8237370300,0.0534388730,9.9202356360
2.3364287080,0.0371228027,0.5162763977,0.0324824520,9.8560834130
2.3464897080,0.6595285034,0.3899391174,0.0877175900,9.9273281330
2.3565497080,1.4193484500,0.6843768311,0.0889151000,10.0235443700
2.3666107080,1.9820283510,0.8940907288,0.1348695370,10.1797968900
2.3766717080,2.2040167240,1.2262500000,-0.0866697690,10.0451246700
2.3867317080,2.5084835820,2.0890557860,0.1517843630,10.4830239700
2.3967927080,1.8902691650,2.0818707280,-0.1657054140,10.0458808100
2.4068537080,1.1255094910,1.7835411070,-0.1303788760,9.9067076070
2.4169147080,0.9141490173,1.7301022340,0.0571810910,10.0593332200
2.4269747080,1.4567706300,1.7832417300,0.1514849850,10.2241535000
2.4370357080,2.1342617800,1.9946022030,-0.0992436220,10.1406262500
2.4470967080,2.4899221800,2.5309368900,0.1920506300,10.6134994600
2.4571577080,2.1077668760,2.6825715640,0.0962498470,10.4772447400
2.4672177080,1.4438974000,2.6994863890,0.0282911680,10.3035935300
2.4772787080,1.2629237370,2.6869125370,-0.1950444030,10.0628945400
2.4873397080,1.5775694270,2.8114535520,-0.1182540890,10.2138599500
2.4974007080,1.8371296690,2.6315277100,-0.0246986390,10.2981603300
2.5074607080,2.1094134520,2.4709117130,-0.1459465030,10.1955362700
2.5175217080,2.3086491390,2.6050328060,0.0504450990,10.4567889100
2.5275827080,2.0547770690,2.7485842900,0.0073347470,10.3998502800
2.5376437080,1.8495538330,2.7822642520,0.1604663090,10.5153241600
2.5477037080,1.7628840640,2.5191114810,-0.0423619080,10.2401385100
2.5577647080,1.7959652710,2.4433689880,-0.3447331240,9.9391559150
2.5678257080,2.2620959470,2.4923172000,-0.0166154480,10.3556315200
2.5778867080,2.7843598940,2.0742366030,0.0880169680,10.4893211100
2.5879467080,3.0030551150,1.8038987730,-0.1694476320,10.2573213300
2.5980077080,3.1674133300,2.1067190550,0.1651066590,10.6758383900
2.6080687080,2.7777735900,1.8953585820,-0.0531394960,10.3201132300
2.6181297080,2.3360421750,1.7889299010,-0.0844244380,10.1609144900
2.6281897080,1.8064434810,1.8905685420,-0.1326242070,10.0244246600
2.6382507080,1.7446220400,2.1647982790,0.0363743590,10.2313804400
2.6483117080,2.2004241940,2.3409819030,-0.0949026490,10.2325548800
2.6583727080,2.6658064270,2.2303619380,0.0082328800,10.4153125300
2.6684327080,2.7940896610,2.1255798340,0.0507444760,10.4670582400
2.6784937080,2.6211991880,1.7146842960,-0.1074765010,10.1955769700
2.6885547080,2.4923172000,1.1981085210,-0.1478924560,10.0500463300
2.6986157080,2.4279510500,1.1337423710,-0.0745449830,10.0974948600
2.7086757080,2.2418879700,1.6759149170,-0.0763412480,10.1281224900
2.7187367080,1.9928059390,1.9172131350,-0.1413061520,10.0563722300
2.7287977080,1.6116984560,1.6266673280,-0.0079335020,10.0659885800
2.7388587080,1.5813116460,1.6009208680,-0.0113763430,10.0536819000
2.7489187080,1.6304095460,1.2448114010,0.0693058780,10.0900186000
2.7589797080,1.7899777220,0.7378157043,-0.0104782100,9.9889448670
2.7690407080,2.5845254520,1.3696517940,0.0898132320,10.3228881600
2.7791007080,1.7301022340,1.0229727170,0.1005908200,10.1123457900
2.7891617080,0.6716532898,0.7358697510,-0.0281414790,9.8324655380
2.7992227080,0.3692820740,1.1490106200,-0.2116598510,9.6739200050
2.8092837080,0.4963677979,1.5061679080,-0.2284249880,9.7119257860
2.8193437080,0.9821076965,1.4521302800,-0.1413061520,9.8263349520
2.8294047080,1.5250286870,1.3307327270,0.0043409730,10.0208707600
2.8394657080,1.0349478150,0.6592291260,0.0681083680,9.9540305880
2.8495267080,0.8283773804,0.7132667542,0.1889071660,10.0584841300
2.8595867080,0.4610412598,0.6448590088,-0.2231858830,9.6195325830
2.8696477080,0.5284011841,0.6304888916,-0.1401086430,9.7048195720
2.8797087080,0.8532257080,0.8806187439,0.0479003910,9.9338654910
2.8897697080,0.9824070740,0.7764353943,-0.0655636600,9.8245618310
2.8998297080,1.2545411680,1.0069560240,0.0097297670,9.9506244360
2.9098907080,0.8677455139,1.0554551700,-0.0017962650,9.9029201960
2.9199517080,0.4932243347,0.8936416626,-0.0743952940,9.7889664750
2.9300127080,0.3855981445,0.4858895874,0.0934057620,9.9228131240
2.9400727080,0.1769320679,0.0013471985,-0.0932560730,9.7183547640
2.9501337080,0.1954934692,0.0392184448,-0.0538879390,9.7581493290
2.9601947080,0.2083666992,0.0416134644,-0.0658630370,9.7464533810
2.9702557080,0.2392025757,0.0220042419,-0.0020956420,9.8108455270
2.9803157080,0.2710862732,0.0333805847,0.0104782100,9.8242757650
2.9903767080,0.2776725769,0.0160166931,-0.0200582890,9.7938918370
3.0004377080,0.2612068176,0.0202079773,-0.0212557980,9.7922495070
3.0104987080,0.2420466614,0.0079335022,-0.0233514400,9.7896445060
3.0205587080,0.2186952209,0.0288899231,-0.0252973940,9.7871889390
3.0306197080,0.2133064270,0.0401165771,-0.0279917910,9.7844158530
3.0406807080,0.2100132751,0.0387693787,-0.0203576660,9.7919714900
3.0507407080,0.2365081787,0.0344284058,-0.0101788330,9.8027351460
3.0608017080,0.2630030823,0.0281414795,-0.0098794560,9.8036893690
3.0708627080,0.2658471680,0.0264949036,-0.0209564210,9.7926886450
3.0809237080,0.2495310974,0.0366737366,-0.0130229190,9.8002229900
3.0909837080,0.2267784119,0.0413140869,-0.0196092220,9.7931040470
3.1010447080,0.2043251038,0.0414637756,-0.0229023740,9.7893180520
3.1111057080,0.2177970886,0.0227526855,-0.0224533080,9.7899960930
3.1211667080,0.2362088013,0.0263452148,-0.0157173160,9.7971660170
3.1312267080,0.2472857666,0.0336799622,-0.0215551760,9.7916258440
3.1412877080,0.2552192688,0.0103285217,-0.0122744750,9.8010544850
3.1513487080,0.2490820312,0.0199085998,-0.0052391050,9.8079444540
3.1614097080,0.2538720703,0.0333805847,-0.0208067320,9.7925415560
3.1714697080,0.2321672058,0.0332308960,-0.0119750980,9.8008314900
3.1815307080,0.2043251038,0.0341290283,-0.0200582890,9.7921331820
3.1915917080,0.2182461548,0.0261955261,-0.0166154480,9.7958510900
3.2016527080,0.2433938599,0.0477507019,-0.0218545530,9.7912875550
3.2117127080,0.2653981018,0.0309855652,-0.0154179380,9.7982260650
3.2217737080,0.2793191528,0.0245489502,-0.0074844360,9.8065250330
3.2318347080,0.2555186462,0.0344284058,-0.0098794560,9.8035115020
3.2418957080,0.2383044434,0.0249980164,-0.0161663820,9.7967643050
3.2519557080,0.2260299683,0.0240998840,-0.0112266540,9.8014095640
3.2620167080,0.2168989563,0.0354762268,-0.0243992610,9.7880685290
3.2720777080,0.2282752991,0.0194595337,-0.0267942810,9.7858879220
3.2821387080,0.2606080627,0.0347277832,-0.0092807010,9.8042450690
3.2921987080,0.2652484131,0.0422122192,-0.0194595340,9.7942238700
3.3022597080,0.2589614868,0.0203576660,-0.0115260310,9.8019165270
3.3123207080,0.2510279846,0.0193098450,-0.0178129580,9.7954231650
3.3223817080,0.2288740540,0.0314346313,-0.0154179380,9.7973062230
3.3324417080,0.2170486450,0.0299377441,-0.0065863040,9.8058618430
3.3425027080,0.2266287231,0.0217048645,-0.0333805850,9.7792698540
3.3525637080,0.2529739380,0.0365240478,-0.0097297670,9.8036027290
3.3626247080,0.2779719543,0.0338296509,-0.0226029970,9.7914019910
3.3726847080,0.2689906311,0.0356259155,-0.0122744750,9.8014820630
3.3827457080,0.2438429260,0.0458047485,-0.0034428410,9.8096952430
3.3928067080,0.2321672058,0.0260458374,-0.0115260310,9.8012587000
3.4028677080,0.2254312134,0.0134719849,-0.0103285220,9.8022732980
3.4129277080,0.2357597351,0.0293389893,-0.0103285220,9.8025509190
3.4229887080,0.2466870117,0.0248483276,-0.0169148250,9.7962232090
3.4330497080,0.2523751831,0.0232017517,-0.0107775880,9.8024992440
3.4431097080,0.2489323425,0.0461041260,-0.0197589110,9.7935138470
3.4531707080,0.2423460388,0.0260458374,-0.0269439700,9.7860919310
3.4632317080,0.2351609802,0.0366737366,-0.0175135800,9.7953782940
3.4732927080,0.2212399292,0.0291893005,-0.0080831910,9.8044567550
3.4833527080,0.2357597351,0.0139210510,-0.0068856810,9.8059587390
3.4934137080,0.2552192688,0.0258961487,-0.0300874330,9.7832764100
3.5034747080,0.2477348328,0.0187110901,-0.0191601560,9.7939913980
3.5135357080,0.2739303589,0.0158670044,-0.0104782100,9.8033625310
3.5235957080,0.2647993469,0.0383203125,-0.0148191830,9.7988343370
3.5336566250,0.2296224976,0.0312849426,-0.0017962650,9.8109411250
3.5437176250,0.2179467773,0.0417631531,-0.0249980160,9.7875180090
3.5537786250,0.2118095398,0.0426612854,-0.0226029970,9.7897815790
3.5638386250,0.2180964661,0.0336799622,-0.0208067320,9.7916804100
3.5738996250,0.2412982178,0.0383203125,-0.0043409730,9.8087023720
3.5839606250,0.2633024597,0.0249980164,-0.0001496890,9.8134151150
3.5940216250,0.2763253784,0.0257464600,0.0025447080,9.8164684200
3.6040816250,0.2520758057,0.0243992615,-0.0052391050,9.8080310840
3.6141426250,0.2261796570,0.0354762268,-0.0119750980,9.8006993520
3.6242036250,0.2194436646,0.0381706238,-0.0187110900,9.7938220850
3.6342646250,0.2192939758,0.0317340088,-0.0148191830,9.7976866720
3.6443246250,0.2314187622,0.0269439697,-0.0163160710,9.7964547430
3.6543856250,0.2630030823,0.0143701172,-0.0098794560,9.8036595110
3.6644466250,0.2505789185,0.0309855652,-0.0077838130,9.8054674580
3.6745076250,0.2514770508,0.0377215576,-0.0160166930,9.7972839420
3.6845676250,0.2556683350,0.0458047485,-0.0157173160,9.7977261480
3.6946286250,0.2233355713,0.0380209351,-0.0140707400,9.7985485880
3.7046896250,0.2143542480,0.0345780945,-0.0179626460,9.7944442890
3.7147506250,0.2210902405,0.0321830750,-0.0209564210,9.7915928650
3.7248106250,0.2366578674,0.0348774719,-0.0315843200,9.7813412470
3.7348716250,0.2674937439,0.0206570435,-0.0106278990,9.8030440780
3.7449326250,0.2694396973,0.0235011292,-0.0011975100,9.8125305780
3.7549936250,0.2576142883,0.0489482117,-0.0140707400,9.7994383060
3.7650536250,0.2404000854,0.0235011292,-0.0267942810,9.7861871350
3.7751146250,0.2134561157,0.0332308960,-0.0187110900,9.7936717490
3.7851756250,0.2209405518,0.0389190674,-0.0279917910,9.7845804220
3.7952356250,0.2365081787,0.0365240478,-0.0127235410,9.8001987800
3.8052966250,0.2640509033,0.0215551758,-0.0688568120,9.7447451540
3.8153576250,0.2842588806,0.0128732300,-0.0119750980,9.8021559270
3.8254186250,0.2589614868,0.0291893005,-0.0056881710,9.8077746460
3.8354786250,0.2420466614,0.0348774719,-0.0214054870,9.7916487660
3.8455396250,0.2170486450,0.0309855652,0.0008981320,9.8133476640
3.8556006250,0.2040257263,0.0329315185,0.0167651370,9.8289380930
3.8656616250,0.2272274780,0.0291893005,-0.0032931520,9.8093824240
3.8757216250,0.2776725769,0.0179626465,-0.0103285220,9.8036210550
3.8857826250,0.2877017212,0.0347277832,-0.0673599240,9.7469489560
3.8958436250,0.2906954956,0.0211061096,0.0062869260,9.8206129320
