"Time (s)","Acceleration x (m/s^2)","Acceleration y (m/s^2)","Acceleration z (m/s^2)","Absolute acceleration (m/s^2)"
2.339833334E-3,2.236349487E-1,-3.921844482E-2,9.770332489E0,9.772970256E0
1.239983333E-2,2.222877502E-1,-2.814147949E-2,9.799222412E0,9.801783698E0
2.246083333E-2,2.348616028E-1,-3.158432007E-2,9.791438599E0,9.794305865E0
3.252183333E-2,2.281256104E-1,-3.128494263E-2,9.799821167E0,9.802525947E0
4.258283333E-2,2.644999695E-1,-2.604583740E-2,9.767039337E0,9.770654842E0
5.264283333E-2,2.800675964E-1,-3.577560425E-2,9.792785797E0,9.796855180E0
6.270383333E-2,2.833607483E-1,-1.197509766E-2,9.794582062E0,9.798687386E0
7.276483333E-2,2.869532776E-1,-2.365081787E-2,9.815239105E0,9.819461301E0
8.282583333E-2,2.540217590E-1,-1.347198486E-3,9.800868988E0,9.804160433E0
9.288583333E-2,2.398013306E-1,7.933502197E-3,9.762099609E0,9.765047691E0
1.029468333E-1,2.414479065E-1,-4.340972900E-3,9.791139221E0,9.794116764E0
1.130078333E-1,2.787203979E-1,-2.409988403E-2,9.795929260E0,9.799923262E0
1.230688333E-1,2.688409424E-1,-4.026626587E-2,9.810598755E0,9.814364205E0
1.331288333E-1,2.700384521E-1,-4.939727783E-2,9.801018677E0,9.804862465E0
1.431898333E-1,2.686912537E-1,-5.239105225E-2,9.792187042E0,9.796012805E0
1.532508333E-1,2.616558838E-1,-4.999603271E-2,9.805509338E0,9.809127219E0
1.633118333E-1,2.562670898E-1,-2.829116821E-2,9.783654785E0,9.787051352E0
1.733718333E-1,2.574645996E-1,-1.945953369E-2,9.793384552E0,9.796787620E0
1.834328333E-1,2.381547546E-1,-5.837860107E-3,9.786199493E0,9.789098646E0
1.934938333E-1,2.356100464E-1,-2.469863892E-2,9.796528015E0,9.799391985E0
2.035538333E-1,2.664459229E-1,-5.254074097E-2,9.784403229E0,9.788171459E0
2.136148333E-1,2.900967407E-1,-3.053649902E-2,9.799521790E0,9.803862295E0
2.236758333E-1,3.279679871E-1,-4.864883423E-2,9.808353424E0,9.813955706E0
2.337368333E-1,3.288661194E-1,-4.520599365E-2,9.811796265E0,9.817410170E0
2.437968333E-1,3.149450684E-1,-4.221221924E-2,9.801168365E0,9.806318045E0
2.538578333E-1,2.550695801E-1,-3.068618774E-2,9.760752411E0,9.764132822E0
2.639188333E-1,2.342628479E-1,-1.481918335E-2,9.795330505E0,9.798142599E0
2.739798333E-1,2.592608643E-1,2.245330811E-3,9.806108093E0,9.809535013E0
2.840398333E-1,2.835104370E-1,-2.065704346E-2,9.832453308E0,9.836561540E0
2.941008333E-1,3.534150696E-1,-2.874023438E-2,9.849218445E0,9.855599027E0
3.041618333E-1,3.661386108E-1,-3.323089600E-2,9.794582062E0,9.801479457E0
3.142228333E-1,3.667373657E-1,-4.281097412E-2,9.820029144E0,9.826968071E0
3.242828333E-1,3.216810608E-1,-5.164260864E-2,9.808503113E0,9.813912521E0
3.343438333E-1,2.933898926E-1,-4.954696655E-2,9.815538483E0,9.820047262E0
3.444048333E-1,2.633024597E-1,-2.380050659E-2,9.815089417E0,9.818649342E0
3.544658333E-1,2.510279846E-1,-2.065704346E-2,9.773925018E0,9.777169940E0
3.645258333E-1,2.516267395E-1,1.152603149E-2,9.759554901E0,9.762804962E0
3.745868333E-1,8.107141113E-1,5.959107971E-1,9.803563385E0,9.855060735E0
3.846478333E-1,1.981279907E0,1.851799164E0,9.712552643E0,1.008406213E1
3.947088333E-1,1.331630859E0,5.294490051E-1,9.785301361E0,9.889675410E0
4.047688333E-1,9.776170349E-1,4.161346436E-2,9.802216187E0,9.850934418E0
4.148298333E-1,8.190966797E-1,3.270698547E-1,9.721533966E0,9.761460788E0
4.248908333E-1,7.406597900E-1,5.914201355E-1,9.888436890E0,9.933757538E0
4.349518333E-1,8.699908447E-1,7.882608032E-1,9.804012451E0,9.874051818E0
4.450118333E-1,1.439556427E0,1.357676697E0,9.884245605E0,1.008037300E1
4.550728333E-1,1.488504639E0,1.183588715E0,9.938432922E0,1.011874386E1
4.651338333E-1,8.719367981E-1,1.229543152E0,9.337881775E0,9.458757116E0
4.751938333E-1,7.274871826E-1,1.083147583E0,1.013557297E1,1.021921160E1
4.852548333E-1,2.334994354E0,1.216819611E0,9.145531769E0,9.517016336E0
4.953158333E-1,1.102906494E0,8.759783936E-1,9.736053772E0,9.837402296E0
5.053768333E-1,8.813671875E-1,1.366807709E0,1.026804749E1,1.039604591E1
5.154368333E-1,1.504221954E0,1.502276001E0,9.668244781E0,9.899215829E0
5.254978333E-1,2.259102173E0,1.331331482E0,9.886640625E0,1.022847247E1
5.355552500E-1,1.912722473E0,1.211730194E0,9.681267700E0,9.942521894E0
5.456162500E-1,1.126108246E0,1.139580231E0,9.547445984E0,9.680934237E0
5.556762500E-1,1.286125488E0,1.493743744E0,9.779463501E0,9.976136302E0
5.657372500E-1,1.641785889E0,1.408121796E0,9.766440582E0,1.000308100E1
5.757982500E-1,1.632654877E0,1.480122070E0,9.732461243E0,9.978833856E0
5.858592500E-1,1.710642700E0,1.367406464E0,1.004486160E1,1.028082407E1
5.959192500E-1,1.753004608E0,1.419947205E0,9.730066223E0,9.988166194E0
6.059802500E-1,1.766177216E0,1.893861694E0,9.859247589E0,1.019366750E1
6.160412500E-1,1.702559509E0,1.870210876E0,9.631571045E0,9.958090098E0
6.261022500E-1,1.790875854E0,1.666634216E0,9.699380035E0,1.000314346E1
6.361622500E-1,1.962568817E0,2.079026642E0,9.806706848E0,1.021496585E1
6.462232500E-1,2.275867310E0,2.499352570E0,9.841734009E0,1.040605898E1
6.562842500E-1,2.703977051E0,2.463576965E0,9.860295410E0,1.051694485E1
6.663452500E-1,3.007994843E0,2.464325409E0,9.668394470E0,1.042107405E1
6.764052500E-1,2.511926422E0,2.099983063E0,9.658664703E0,1.019850514E1
6.864662500E-1,2.087409210E0,2.047741699E0,9.872120819E0,1.029608143E1
6.965272500E-1,3.131488037E0,3.153043213E0,9.695488129E0,1.066538273E1
7.065882500E-1,3.571423187E0,2.555485840E0,9.708660736E0,1.065568697E1
7.166482500E-1,3.394790497E0,2.411784668E0,9.907597046E0,1.074717577E1
7.267092500E-1,3.143014069E0,2.714604950E0,9.877210236E0,1.071479816E1
7.367702500E-1,2.782713318E0,2.086810455E0,9.587861938E0,1.019928271E1
7.468312500E-1,2.445913696E0,2.474055176E0,1.009560608E1,1.067823510E1
7.568912500E-1,2.290985870E0,2.597698059E0,9.478738861E0,1.009173632E1
7.669522500E-1,2.113155670E0,1.908082123E0,9.798324280E0,1.020359559E1
7.770132500E-1,2.918331299E0,2.321672058E0,9.965825958E0,1.064070043E1
7.870732500E-1,2.906356201E0,1.559307404E0,9.975705414E0,1.050680943E1
7.971342500E-1,2.821482697E0,1.632654877E0,9.587712250E0,1.012672468E1
8.071952500E-1,3.031945038E0,1.439406738E0,9.896220703E0,1.044986922E1
8.172562500E-1,2.833008728E0,1.129551086E0,9.792037354E0,1.025601383E1
8.273162500E-1,2.211650848E0,1.126557312E0,9.790390778E0,1.010011299E1
8.373772500E-1,2.006876678E0,1.100212097E0,9.946815491E0,1.020672127E1
8.474382500E-1,2.354304199E0,8.662486267E-1,9.684560852E0,1.000419181E1
8.574992500E-1,1.779948578E0,4.974156189E-1,9.754914551E0,9.928443842E0
8.675592500E-1,1.000070343E0,9.295669556E-1,9.792785797E0,9.887511774E0
8.776202500E-1,2.644999695E-1,8.562194824E-1,1.008378067E1,1.012352234E1
8.876812500E-1,-3.727249146E-2,7.011419678E-1,9.788744202E0,9.813893333E0
8.977422500E-1,-2.320175171E-1,-2.784210205E-2,9.779164124E0,9.781955749E0
9.078022500E-1,8.283773804E-1,3.201841736E-1,9.830806732E0,9.870840288E0
9.178632500E-1,9.313632202E-1,-1.886077881E-2,1.014769775E1,1.019036618E1
9.279242500E-1,6.737489319E-1,-2.377056885E-1,9.355994110E0,9.383233313E0
9.379852500E-1,1.142124939E-1,2.140548706E-2,9.958341522E0,9.959019458E0
9.480452500E-1,-6.002517700E-1,1.743873596E-1,9.769883423E0,9.789858795E0
9.581062500E-1,-9.475296021E-1,-2.716850281E-1,9.570797424E0,9.621423410E0
9.681672500E-1,-5.056484985E-1,-1.803749084E-1,9.876461792E0,9.891042060E0
9.782282500E-1,2.441423035E-1,2.559677124E-2,1.011057495E1,1.011355459E1
9.882882500E-1,6.483018494E-1,-2.380050659E-2,9.801018677E0,9.822465518E0
9.983492500E-1,2.538720703E-1,-3.266207886E-1,1.019978943E1,1.020817499E1
1.008410250E0,-1.660047913E-1,-4.595443726E-2,9.512418823E0,9.513978204E0
1.018471250E0,-7.768844604E-1,1.405577087E-1,9.791588287E0,9.823365366E0
1.028531250E0,-1.037043457E0,4.610412598E-1,9.914782104E0,9.979525157E0
1.038592250E0,-3.094065857E-1,5.031037903E-1,9.928553467E0,9.946105761E0
1.048653250E0,4.381388855E-1,5.176235962E-1,9.843230896E0,9.866564465E0
1.058714250E0,1.185534668E-1,3.761677551E-1,9.963580627E0,9.971383857E0
1.068774250E0,-4.093986511E-1,-1.972897339E-1,9.742191010E0,9.752785046E0
1.078835250E0,-1.476679230E0,-1.015338593E0,9.901609497E0,1.006247309E1
1.088896250E0,-2.229613495E0,-1.406026154E0,9.760303345E0,1.010997563E1
1.098957250E0,-2.830613708E0,-1.502276001E0,9.632169800E0,1.015125126E1
1.109017250E0,-3.350033569E0,-1.041983185E0,1.001716919E1,1.061377089E1
1.119078250E0,-2.740052032E0,-8.201445007E-1,9.754016418E0,1.016471143E1
1.129139250E0,-2.252815247E0,-1.185684357E0,9.893825684E0,1.021610545E1
1.139199250E0,-1.801054688E0,-1.224753113E0,9.686207428E0,9.928062878E0
1.149260250E0,-1.732946320E0,-1.282233582E0,1.010309052E1,1.033052099E1
1.159321250E0,-1.645827484E0,-1.259630585E0,9.465865631E0,9.690099559E0
1.169382250E0,-2.422562256E0,-1.877994690E0,1.015862503E1,1.061100063E1
1.179442250E0,-3.023113403E0,-2.023941193E0,9.775721283E0,1.043073723E1
1.189503250E0,-2.523153076E0,-2.034120026E0,9.843380585E0,1.036320834E1
1.199564250E0,-1.605261841E0,-2.109263763E0,9.898016968E0,1.024678482E1
1.209625250E0,-1.132095795E0,-1.602567444E0,9.678273926E0,9.875163264E0
1.219685250E0,-1.015937347E0,-1.123563538E0,9.945468292E0,1.006016219E1
1.229746250E0,-8.268804932E-1,-6.966513062E-1,9.786199493E0,9.845748063E0
1.239807250E0,-7.173083496E-1,-7.384144592E-1,9.874665527E0,9.928182435E0
1.249868250E0,-1.130598907E0,-1.664538574E0,9.847571869E0,1.005105041E1
1.259928250E0,-1.544188843E0,-2.266287231E0,9.848470001E0,1.022315697E1
1.269989250E0,-1.712438965E0,-1.604513397E0,9.840686188E0,1.011662073E1
1.280050250E0,-1.827998657E0,-7.264393616E-1,9.809550934E0,1.000482797E1
1.290111250E0,-1.335223389E0,-8.690927124E-1,9.968819733E0,1.009532122E1
1.300171250E0,-8.457412720E-1,-1.244512024E0,9.625284119E0,9.742185732E0
1.310232250E0,-3.254232788E-1,-1.280137939E0,9.729916534E0,9.819161330E0
1.320293250E0,8.981323242E-3,-1.653012543E0,9.794282684E0,9.932799426E0
1.330354250E0,-3.879931641E-1,-2.023492126E0,9.822723541E0,1.003648130E1
1.340414250E0,-9.292675781E-1,-1.971999207E0,9.833052063E0,1.007180381E1
1.350475250E0,-1.084345093E0,-1.531614990E0,9.810449066E0,9.988321162E0
1.360536250E0,-1.197509766E0,-1.073417816E0,9.827513580E0,9.958226680E0
1.370597250E0,-8.084687805E-1,-1.221160583E0,9.857451324E0,9.965651085E0
1.380657250E0,-6.119274902E-1,-1.370549927E0,9.735305328E0,9.850331578E0
1.390718250E0,-5.315446472E-1,-1.507365417E0,9.852062531E0,9.980873024E0
1.400779250E0,-6.918612671E-1,-1.573228455E0,9.847571869E0,9.996418934E0
1.410840250E0,-8.955876160E-1,-1.617236938E0,9.856253815E0,1.002812404E1
1.420900250E0,-5.547463989E-1,-1.400637360E0,9.882000275E0,9.996172168E0
1.430961250E0,-2.185455322E-2,-1.431922302E0,9.881251831E0,9.984488813E0
1.441022250E0,-2.275268555E-2,-1.537752228E0,9.683063965E0,9.804434066E0
1.451083250E0,-1.808239746E-1,-1.683848419E0,9.816735992E0,9.961744243E0
1.461143250E0,-1.775308228E-1,-1.649719391E0,9.932894440E0,1.007052547E1
1.471204250E0,-6.451583862E-1,-1.258433075E0,9.777667236E0,9.879405839E0
1.481265250E0,-1.248553619E0,-7.812254333E-1,9.876012726E0,9.985230427E0
1.491325250E0,-1.312171326E0,-9.148974609E-1,9.746232605E0,9.876633077E0
1.501386250E0,-7.970924377E-1,-1.201102295E0,9.795629883E0,9.901129626E0
1.511447250E0,-5.953120422E-1,-6.914122009E-1,9.793085175E0,9.835495132E0
1.521508250E0,-4.096980286E-1,-5.421725464E-1,9.778415680E0,9.802000651E0
1.531568708E0,-2.752775574E-1,-7.918533325E-1,9.887838135E0,9.923313580E0
1.541629708E0,-5.069956970E-1,-1.172511749E0,9.814640350E0,9.897423586E0
1.551690708E0,-5.462141418E-1,-1.196012878E0,9.725276184E0,9.813755324E0
1.561751708E0,-1.270857239E-1,-9.716294861E-1,9.892628174E0,9.941041536E0
1.571811708E0,-1.796264648E-2,-9.848020935E-1,9.783804474E0,9.833259267E0
1.581872708E0,-1.333726501E-1,-3.212319946E-1,9.826016693E0,9.832170783E0
1.591933708E0,-4.668791199E-1,-1.026864624E-1,9.670939178E0,9.682746781E0
1.601994708E0,-5.725593567E-1,-3.926335144E-1,1.004096970E1,1.006494201E1
1.612054708E0,-4.379891968E-1,-7.557783508E-1,9.655820618E0,9.695251789E0
1.622115708E0,-6.417155457E-1,-1.104553070E0,9.839488678E0,9.922064995E0
1.632176708E0,-4.695735168E-1,-7.969427490E-1,9.744735718E0,9.788538770E0
1.642237708E0,-8.741821289E-2,-6.033952332E-1,9.828411713E0,9.847304430E0
1.652297708E0,9.400451660E-2,-4.104464722E-1,9.803862762E0,9.812901111E0
1.662358708E0,2.989283752E-1,-1.380130005E-1,9.875563660E0,9.881050721E0
1.672419708E0,3.233276367E-1,1.767823792E-1,9.807006226E0,9.813927037E0
1.682480708E0,3.008743286E-1,1.501377869E-1,9.797276459E0,9.803045074E0
1.692540708E0,2.990780640E-1,1.781295776E-1,9.785451050E0,9.791640827E0
1.702601708E0,3.011737061E-1,2.279759216E-1,9.799821167E0,9.807098120E0
1.712662708E0,3.131488037E-1,2.579136658E-1,9.794432373E0,9.802830568E0
1.722723708E0,2.972817993E-1,2.601589966E-1,9.780661011E0,9.788635706E0
1.732783708E0,3.061134338E-1,2.478845215E-1,9.789193268E0,9.797114729E0
1.742844708E0,2.975811768E-1,2.086660767E-1,9.765243073E0,9.772004316E0
1.752905708E0,2.766247559E-1,1.829196167E-1,9.769883423E0,9.775510367E0
1.762966708E0,2.888992310E-1,1.748364258E-1,9.779912567E0,9.785740665E0
1.773026708E0,2.056723022E-1,1.369651794E-1,9.840237122E0,9.843339228E0
1.783087708E0,-4.460723877E-1,-1.769320679E-1,9.937085724E0,9.948666153E0
1.793148708E0,-7.524851990E-1,-3.742218018E-1,9.625134430E0,9.661753916E0
1.803208708E0,-1.145118713E0,-8.655001831E-1,9.789193268E0,9.893871450E0
1.813269708E0,-1.010997620E0,-1.068777466E0,9.790989532E0,9.900902862E0
1.823330708E0,-6.923103333E-1,-1.130898285E0,9.892777863E0,9.981246333E0
1.833391708E0,-3.070115662E-1,-1.342408447E0,9.784403229E0,9.880833117E0
1.843451708E0,-2.874023438E-1,-1.610500946E0,9.842632141E0,9.977661092E0
1.853512708E0,-1.077459412E0,-2.147434387E0,9.766440582E0,1.005762173E1
1.863573708E0,-1.814826050E0,-2.637066193E0,9.860445099E0,1.036706753E1
1.873634708E0,-2.388582916E0,-2.898871765E0,9.783205719E0,1.047949903E1
1.883694708E0,-2.205663300E0,-2.682272186E0,9.859397278E0,1.045309760E1
1.893755708E0,-1.450633392E0,-2.506387939E0,9.817484436E0,1.023568847E1
1.903816708E0,-8.171507263E-1,-2.337988129E0,9.955198059E0,1.025864963E1
1.913877708E0,-8.414002991E-1,-2.290686493E0,9.767937469E0,1.006815780E1
1.923937708E0,-1.656605072E0,-2.313139801E0,9.721384277E0,1.012917906E1
1.933998708E0,-2.178419952E0,-2.373614044E0,9.822573853E0,1.033743267E1
1.944059708E0,-2.260149994E0,-1.919907532E0,1.006012985E1,1.048811401E1
1.954120708E0,-2.554887085E0,-1.761985931E0,9.764943695E0,1.024627580E1
1.964180708E0,-2.686912537E0,-2.442321167E0,9.885892181E0,1.053163311E1
1.974241708E0,-2.653981018E0,-2.660567322E0,9.806706848E0,1.050208231E1
1.984302708E0,-2.408641205E0,-2.381098480E0,9.809550934E0,1.037778743E1
1.994363708E0,-2.114802246E0,-1.885628815E0,9.921667786E0,1.031830782E1
2.004423708E0,-2.715952148E0,-2.133812714E0,9.809101868E0,1.039942461E1
2.014484708E0,-3.185076599E0,-2.597847748E0,9.697134705E0,1.053223373E1
2.024545708E0,-1.974244537E0,-1.762884064E0,9.891879730E0,1.023985773E1
2.034606708E0,-1.848805389E0,-2.462529144E0,9.948761444E0,1.041441239E1
2.044666708E0,-1.824106750E0,-3.231031036E0,9.841284943E0,1.051750048E1
2.054727708E0,-1.389560394E0,-3.161575470E0,9.883946228E0,1.046990117E1
2.064788708E0,-8.767268372E-1,-2.815944214E0,1.007240433E1,1.049530946E1
2.074849708E0,-9.409432983E-1,-2.579735413E0,9.748028870E0,1.012741210E1
2.084909708E0,-1.346599731E0,-2.114053802E0,9.977950745E0,1.028795681E1
2.094970708E0,-2.106419678E0,-2.019749908E0,9.777966614E0,1.020416702E1
2.105031708E0,-2.462828522E0,-2.752775574E0,9.881102142E0,1.054890882E1
2.115091708E0,-2.121837616E0,-3.166066132E0,9.724228363E0,1.044446202E1
2.125152708E0,-1.124012604E0,-3.015030212E0,1.007000931E1,1.057160815E1
2.135213708E0,-4.257147217E-1,-2.952610016E0,9.908644867E0,1.034796512E1
2.145274708E0,-3.472778320E-1,-2.827320557E0,9.879754944E0,1.028221285E1
2.155334708E0,-4.379891968E-1,-2.254312134E0,9.997709656E0,1.025806785E1
2.165395708E0,-8.571176147E-1,-1.602866821E0,9.875114594E0,1.004100199E1
2.175456708E0,-1.233734436E0,-1.601369934E0,9.919123077E0,1.012301778E1
2.185517708E0,-1.145268402E0,-1.476080475E0,1.006491989E1,1.023684843E1
2.195577708E0,-6.845265198E-1,-1.728455658E0,9.531129913E0,9.710745231E0
2.205638708E0,8.247848511E-2,-1.867666168E0,1.004695724E1,1.021940945E1
2.215699708E0,3.550616455E-1,-2.111808472E0,9.682165833E0,9.916155455E0
2.225760708E0,8.026309204E-1,-1.293310547E0,1.000085312E1,1.011602351E1
2.235820708E0,4.328997803E-1,-1.056053925E0,9.837393036E0,9.903380930E0
2.245881708E0,-6.182144165E-2,-1.066981201E0,9.779613190E0,9.837840460E0
2.255942708E0,8.352630615E-2,-3.900888062E-1,9.902357941E0,9.910390442E0
2.266003708E0,2.570155334E-1,-1.293310547E-1,9.967472534E0,9.971624352E0
2.276063708E0,4.240681458E-1,-3.703298950E-1,9.592801666E0,9.609309124E0
2.286124708E0,1.115330658E0,-4.537065125E-1,9.843380585E0,9.916751152E0
2.296185708E0,1.734443207E0,-2.604583740E-2,1.001941452E1,1.016846296E1
2.306246708E0,1.621727600E0,1.362167358E-1,9.796228638E0,9.930490971E0
2.316306708E0,1.305884399E0,3.977229309E-1,9.702224121E0,9.797789061E0
2.326367708E0,6.671626282E-1,8.237370300E-1,9.863438873E0,9.920235636E0
2.336428708E0,3.712280273E-2,5.162763977E-1,9.842482452E0,9.856083413E0
2.346489708E0,6.595285034E-1,3.899391174E-1,9.897717590E0,9.927328133E0
2.356549708E0,1.419348450E0,6.843768311E-1,9.898915100E0,1.002354437E1
2.366610708E0,1.982028351E0,8.940907288E-1,9.944869537E0,1.017979689E1
2.376671708E0,2.204016724E0,1.226250000E0,9.723330231E0,1.004512467E1
2.386731708E0,2.508483582E0,2.089055786E0,9.961784363E0,1.048302397E1
2.396792708E0,1.890269165E0,2.081870728E0,9.644294586E0,1.004588081E1
2.406853708E0,1.125509491E0,1.783541107E0,9.679621124E0,9.906707607E0
2.416914708E0,9.141490173E-1,1.730102234E0,9.867181091E0,1.005933322E1
2.426974708E0,1.456770630E0,1.783241730E0,9.961484985E0,1.022415350E1
2.437035708E0,2.134261780E0,1.994602203E0,9.710756378E0,1.014062625E1
2.447096708E0,2.489922180E0,2.530936890E0,1.000205063E1,1.061349946E1
2.457157708E0,2.107766876E0,2.682571564E0,9.906249847E0,1.047724474E1
2.467217708E0,1.443897400E0,2.699486389E0,9.838291168E0,1.030359353E1
2.477278708E0,1.262923737E0,2.686912537E0,9.614955597E0,1.006289454E1
2.487339708E0,1.577569427E0,2.811453552E0,9.691745911E0,1.021385995E1
2.497400708E0,1.837129669E0,2.631527710E0,9.785301361E0,1.029816033E1
2.507460708E0,2.109413452E0,2.470911713E0,9.664053497E0,1.019553627E1
2.517521708E0,2.308649139E0,2.605032806E0,9.860445099E0,1.045678891E1
2.527582708E0,2.054777069E0,2.748584290E0,9.817334747E0,1.039985028E1
2.537643708E0,1.849553833E0,2.782264252E0,9.970466309E0,1.051532416E1
2.547703708E0,1.762884064E0,2.519111481E0,9.767638092E0,1.024013851E1
2.557764708E0,1.795965271E0,2.443368988E0,9.465266876E0,9.939155915E0
2.567825708E0,2.262095947E0,2.492317200E0,9.793384552E0,1.035563152E1
2.577886708E0,2.784359894E0,2.074236603E0,9.898016968E0,1.048932111E1
2.587946708E0,3.003055115E0,1.803898773E0,9.640552368E0,1.025732133E1
2.598007708E0,3.167413330E0,2.106719055E0,9.975106659E0,1.067583839E1
2.608068708E0,2.777773590E0,1.895358582E0,9.756860504E0,1.032011323E1
2.618129708E0,2.336042175E0,1.788929901E0,9.725575562E0,1.016091449E1
2.628189708E0,1.806443481E0,1.890568542E0,9.677375793E0,1.002442466E1
2.638250708E0,1.744622040E0,2.164798279E0,9.846374359E0,1.023138044E1
2.648311708E0,2.200424194E0,2.340981903E0,9.715097351E0,1.023255488E1
2.658372708E0,2.665806427E0,2.230361938E0,9.818232880E0,1.041531253E1
2.668432708E0,2.794089661E0,2.125579834E0,9.860744476E0,1.046705824E1
2.678493708E0,2.621199188E0,1.714684296E0,9.702523499E0,1.019557697E1
2.688554708E0,2.492317200E0,1.198108521E0,9.662107544E0,1.005004633E1
2.698615708E0,2.427951050E0,1.133742371E0,9.735455017E0,1.009749486E1
2.708675708E0,2.241887970E0,1.675914917E0,9.733658752E0,1.012812249E1
2.718736708E0,1.992805939E0,1.917213135E0,9.668693848E0,1.005637223E1
2.728797708E0,1.611698456E0,1.626667328E0,9.802066498E0,1.006598858E1
2.738858708E0,1.581311646E0,1.600920868E0,9.798623657E0,1.005368190E1
2.748918708E0,1.630409546E0,1.244811401E0,9.879305878E0,1.009001860E1
2.758979708E0,1.789977722E0,7.378157043E-1,9.799521790E0,9.988944867E0
2.769040708E0,2.584525452E0,1.369651794E0,9.899813232E0,1.032288816E1
2.779100708E0,1.730102234E0,1.022972717E0,9.910590820E0,1.011234579E1
2.789161708E0,6.716532898E-1,7.358697510E-1,9.781858521E0,9.832465538E0
2.799222708E0,3.692820740E-1,1.149010620E0,9.598340149E0,9.673920005E0
2.809283708E0,4.963677979E-1,1.506167908E0,9.581575012E0,9.711925786E0
2.819343708E0,9.821076965E-1,1.452130280E0,9.668693848E0,9.826334952E0
2.829404708E0,1.525028687E0,1.330732727E0,9.814340973E0,1.002087076E1
2.839465708E0,1.034947815E0,6.592291260E-1,9.878108368E0,9.954030588E0
2.849526708E0,8.283773804E-1,7.132667542E-1,9.998907166E0,1.005848413E1
2.859586708E0,4.610412598E-1,6.448590088E-1,9.586814117E0,9.619532583E0
2.869647708E0,5.284011841E-1,6.304888916E-1,9.669891357E0,9.704819572E0
2.879708708E0,8.532257080E-1,8.806187439E-1,9.857900391E0,9.933865491E0
2.889769708E0,9.824070740E-1,7.764353943E-1,9.744436340E0,9.824561831E0
2.899829708E0,1.254541168E0,1.006956024E0,9.819729767E0,9.950624436E0
2.909890708E0,8.677455139E-1,1.055455170E0,9.808203735E0,9.902920196E0
2.919951708E0,4.932243347E-1,8.936416626E-1,9.735604706E0,9.788966475E0
2.930012708E0,3.855981445E-1,4.858895874E-1,9.903405762E0,9.922813124E0
2.940072708E0,1.769320679E-1,1.347198486E-3,9.716743927E0,9.718354764E0
2.950133708E0,1.954934692E-1,3.921844482E-2,9.756112061E0,9.758149329E0
2.960194708E0,2.083666992E-1,4.161346436E-2,9.744136963E0,9.746453381E0
2.970255708E0,2.392025757E-1,2.200424194E-2,9.807904358E0,9.810845527E0
2.980315708E0,2.710862732E-1,3.338058472E-2,9.820478210E0,9.824275765E0
2.990376708E0,2.776725769E-1,1.601669312E-2,9.789941711E0,9.793891837E0
3.000437708E0,2.612068176E-1,2.020797729E-2,9.788744202E0,9.792249507E0
3.010498708E0,2.420466614E-1,7.933502197E-3,9.786648560E0,9.789644506E0
3.020558708E0,2.186952209E-1,2.888992310E-2,9.784702606E0,9.787188939E0
3.030619708E0,2.133064270E-1,4.011657715E-2,9.782008209E0,9.784415853E0
3.040680708E0,2.100132751E-1,3.876937866E-2,9.789642334E0,9.791971490E0
3.050740708E0,2.365081787E-1,3.442840576E-2,9.799821167E0,9.802735146E0
3.060801708E0,2.630030823E-1,2.814147949E-2,9.800120544E0,9.803689369E0
3.070862708E0,2.658471680E-1,2.649490356E-2,9.789043579E0,9.792688645E0
3.080923708E0,2.495310974E-1,3.667373657E-2,9.796977081E0,9.800222990E0
3.090983708E0,2.267784119E-1,4.131408691E-2,9.790390778E0,9.793104047E0
3.101044708E0,2.043251038E-1,4.146377563E-2,9.787097626E0,9.789318052E0
3.111105708E0,2.177970886E-1,2.275268555E-2,9.787546692E0,9.789996093E0
3.121166708E0,2.362088013E-1,2.634521484E-2,9.794282684E0,9.797166017E0
3.131226708E0,2.472857666E-1,3.367996216E-2,9.788444824E0,9.791625844E0
3.141287708E0,2.552192688E-1,1.032852173E-2,9.797725525E0,9.801054485E0
3.151348708E0,2.490820312E-1,1.990859985E-2,9.804760895E0,9.807944454E0
3.161409708E0,2.538720703E-1,3.338058472E-2,9.789193268E0,9.792541556E0
3.171469708E0,2.321672058E-1,3.323089600E-2,9.798024902E0,9.800831490E0
3.181530708E0,2.043251038E-1,3.412902832E-2,9.789941711E0,9.792133182E0
3.191591708E0,2.182461548E-1,2.619552612E-2,9.793384552E0,9.795851090E0
3.201652708E0,2.433938599E-1,4.775070190E-2,9.788145447E0,9.791287555E0
3.211712708E0,2.653981018E-1,3.098556519E-2,9.794582062E0,9.798226065E0
3.221773708E0,2.793191528E-1,2.454895020E-2,9.802515564E0,9.806525033E0
3.231834708E0,2.555186462E-1,3.442840576E-2,9.800120544E0,9.803511502E0
3.241895708E0,2.383044434E-1,2.499801636E-2,9.793833618E0,9.796764305E0
3.251955708E0,2.260299683E-1,2.409988403E-2,9.798773346E0,9.801409564E0
3.262016708E0,2.168989563E-1,3.547622681E-2,9.785600739E0,9.788068529E0
3.272077708E0,2.282752991E-1,1.945953369E-2,9.783205719E0,9.785887922E0
3.282138708E0,2.606080627E-1,3.472778320E-2,9.800719299E0,9.804245069E0
3.292198708E0,2.652484131E-1,4.221221924E-2,9.790540466E0,9.794223870E0
3.302259708E0,2.589614868E-1,2.035766602E-2,9.798473969E0,9.801916527E0
3.312320708E0,2.510279846E-1,1.930984497E-2,9.792187042E0,9.795423165E0
3.322381708E0,2.288740540E-1,3.143463135E-2,9.794582062E0,9.797306223E0
3.332441708E0,2.170486450E-1,2.993774414E-2,9.803413696E0,9.805861843E0
3.342502708E0,2.266287231E-1,2.170486450E-2,9.776619415E0,9.779269854E0
3.352563708E0,2.529739380E-1,3.652404785E-2,9.800270233E0,9.803602729E0
3.362624708E0,2.779719543E-1,3.382965088E-2,9.787397003E0,9.791401991E0
3.372684708E0,2.689906311E-1,3.562591553E-2,9.797725525E0,9.801482063E0
3.382745708E0,2.438429260E-1,4.580474854E-2,9.806557159E0,9.809695243E0
3.392806708E0,2.321672058E-1,2.604583740E-2,9.798473969E0,9.801258700E0
3.402867708E0,2.254312134E-1,1.347198486E-2,9.799671478E0,9.802273298E0
3.412927708E0,2.357597351E-1,2.933898926E-2,9.799671478E0,9.802550919E0
3.422988708E0,2.466870117E-1,2.484832764E-2,9.793085175E0,9.796223209E0
3.433049708E0,2.523751831E-1,2.320175171E-2,9.799222412E0,9.802499244E0
3.443109708E0,2.489323425E-1,4.610412598E-2,9.790241089E0,9.793513847E0
3.453170708E0,2.423460388E-1,2.604583740E-2,9.783056030E0,9.786091931E0
3.463231708E0,2.351609802E-1,3.667373657E-2,9.792486420E0,9.795378294E0
3.473292708E0,2.212399292E-1,2.918930054E-2,9.801916809E0,9.804456755E0
3.483352708E0,2.357597351E-1,1.392105103E-2,9.803114319E0,9.805958739E0
3.493413708E0,2.552192688E-1,2.589614868E-2,9.779912567E0,9.783276410E0
3.503474708E0,2.477348328E-1,1.871109009E-2,9.790839844E0,9.793991398E0
3.513535708E0,2.739303589E-1,1.586700439E-2,9.799521790E0,9.803362531E0
3.523595708E0,2.647993469E-1,3.832031250E-2,9.795180817E0,9.798834337E0
3.533656625E0,2.296224976E-1,3.128494263E-2,9.808203735E0,9.810941125E0
3.543717625E0,2.179467773E-1,4.176315308E-2,9.785001984E0,9.787518009E0
3.553778625E0,2.118095398E-1,4.266128540E-2,9.787397003E0,9.789781579E0
3.563838625E0,2.180964661E-1,3.367996216E-2,9.789193268E0,9.791680410E0
3.573899625E0,2.412982178E-1,3.832031250E-2,9.805659027E0,9.808702372E0
3.583960625E0,2.633024597E-1,2.499801636E-2,9.809850311E0,9.813415115E0
3.594021625E0,2.763253784E-1,2.574645996E-2,9.812544708E0,9.816468420E0
3.604081625E0,2.520758057E-1,2.439926147E-2,9.804760895E0,9.808031084E0
3.614142625E0,2.261796570E-1,3.547622681E-2,9.798024902E0,9.800699352E0
3.624203625E0,2.194436646E-1,3.817062378E-2,9.791288910E0,9.793822085E0
3.634264625E0,2.192939758E-1,3.173400879E-2,9.795180817E0,9.797686672E0
3.644324625E0,2.314187622E-1,2.694396973E-2,9.793683929E0,9.796454743E0
3.654385625E0,2.630030823E-1,1.437011719E-2,9.800120544E0,9.803659511E0
3.664446625E0,2.505789185E-1,3.098556519E-2,9.802216187E0,9.805467458E0
3.674507625E0,2.514770508E-1,3.772155762E-2,9.793983307E0,9.797283942E0
3.684567625E0,2.556683350E-1,4.580474854E-2,9.794282684E0,9.797726148E0
3.694628625E0,2.233355713E-1,3.802093506E-2,9.795929260E0,9.798548588E0
3.704689625E0,2.143542480E-1,3.457809448E-2,9.792037354E0,9.794444289E0
3.714750625E0,2.210902405E-1,3.218307495E-2,9.789043579E0,9.791592865E0
3.724810625E0,2.366578674E-1,3.487747192E-2,9.778415680E0,9.781341247E0
3.734871625E0,2.674937439E-1,2.065704346E-2,9.799372101E0,9.803044078E0
3.744932625E0,2.694396973E-1,2.350112915E-2,9.808802490E0,9.812530578E0
3.754993625E0,2.576142883E-1,4.894821167E-2,9.795929260E0,9.799438306E0
3.765053625E0,2.404000854E-1,2.350112915E-2,9.783205719E0,9.786187135E0
3.775114625E0,2.134561157E-1,3.323089600E-2,9.791288910E0,9.793671749E0
3.785175625E0,2.209405518E-1,3.891906738E-2,9.782008209E0,9.784580422E0
3.795235625E0,2.365081787E-1,3.652404785E-2,9.797276459E0,9.800198780E0
3.805296625E0,2.640509033E-1,2.155517578E-2,9.741143188E0,9.744745154E0
3.815357625E0,2.842588806E-1,1.287322998E-2,9.798024902E0,9.802155927E0
3.825418625E0,2.589614868E-1,2.918930054E-2,9.804311829E0,9.807774646E0
3.835478625E0,2.420466614E-1,3.487747192E-2,9.788594513E0,9.791648766E0
3.845539625E0,2.170486450E-1,3.098556519E-2,9.810898132E0,9.813347664E0
3.855600625E0,2.040257263E-1,3.293151855E-2,9.826765137E0,9.828938093E0
3.865661625E0,2.272274780E-1,2.918930054E-2,9.806706848E0,9.809382424E0
3.875721625E0,2.776725769E-1,1.796264648E-2,9.799671478E0,9.803621055E0
3.885782625E0,2.877017212E-1,3.472778320E-2,9.742640076E0,9.746948956E0
3.895843625E0,2.906954956E-1,2.110610962E-2,9.816286926E0,9.820612932E0